Column1,Column2,Column3,Column4,Column5,Column6,Column7,Column8,Column9,Column10
SerialNumber: DCB535485BF5-6D2D,,,,,,,,,
time,ax,ay,az,gx,gy,gz,mx,my,mz
,,,,,,,,,
06-26-2025 18:32:31.323,-0.001708,0.020008,0.998204,0.175,0.105,0.035,0.105,-0.2115,-0.171
06-26-2025 18:32:31.363,-0.00122,0.023668,1.0004,0.21,0.035,-0.035,0.105,-0.2115,-0.1635
06-26-2025 18:32:31.403,-0.003416,0.020008,0.998936,0.245,0.07,-0.07,0.1005,-0.2085,-0.168
06-26-2025 18:32:31.443,-0.005612,0.020008,0.998692,0.28,0.105,-0.07,0.1005,-0.2085,-0.1725
06-26-2025 18:32:31.483,-0.00366,0.025376,1.000644,0.315,0.07,-0.035,0.105,-0.2085,-0.174
06-26-2025 18:32:31.523,-0.000244,0.021716,0.996984,0.315,0.07,0,0.09,-0.207,-0.1695
06-26-2025 18:32:31.563,-0.00366,0.024156,0.999424,0.455,0.07,-0.035,0.1005,-0.213,-0.177
06-26-2025 18:32:31.603,-0.001708,0.021716,0.998692,0.525,0.07,0,0.0975,-0.204,-0.165
06-26-2025 18:32:31.643,-0.001708,0.019764,0.999424,0.665,0.105,-0.105,0.1035,-0.2085,-0.1665
06-26-2025 18:32:31.683,-0.002196,0.017324,0.996496,0.805,0.175,-0.14,0.1005,-0.213,-0.1635
06-26-2025 18:32:31.723,-0.002684,0.0183,0.996496,0.98,0.14,-0.175,0.102,-0.216,-0.159
06-26-2025 18:32:31.763,-0.004636,0.019764,0.99918,1.12,0.21,-0.245,0.099,-0.207,-0.1635
06-26-2025 18:32:31.803,-0.005368,0.020252,0.999912,1.225,0.175,-0.245,0.102,-0.21,-0.1635
06-26-2025 18:32:31.843,-0.00488,0.018788,0.996496,1.33,0.175,-0.21,0.093,-0.2055,-0.168
06-26-2025 18:32:31.883,-0.004392,0.019032,0.998204,1.33,0.21,-0.175,0.0915,-0.2055,-0.162
06-26-2025 18:32:31.923,-0.006832,0.0244,0.999424,1.47,0.245,-0.21,0.1005,-0.2115,-0.162
06-26-2025 18:32:31.963,-0.0061,0.023424,0.994788,1.47,0.245,-0.315,0.1005,-0.2115,-0.162
06-26-2025 18:32:32.003,-0.002928,0.023424,0.995764,1.54,0.21,-0.21,0.0915,-0.21,-0.159
06-26-2025 18:32:32.043,-0.009272,0.025132,0.99796,1.575,0.28,-0.175,0.0915,-0.2235,-0.171
06-26-2025 18:32:32.083,-0.0061,0.025376,0.99552,1.575,0.245,-0.14,0.0975,-0.216,-0.1725
06-26-2025 18:32:32.123,-0.00366,0.026596,1.002596,1.61,0.28,-0.21,0.102,-0.219,-0.1605
06-26-2025 18:32:32.163,-0.002684,0.023912,1.000156,1.61,0.28,-0.245,0.0915,-0.2115,-0.159
06-26-2025 18:32:32.203,-0.004148,0.030256,0.99918,1.575,0.28,-0.14,0.093,-0.2085,-0.1635
06-26-2025 18:32:32.243,-0.002684,0.03294,0.994788,1.54,0.245,-0.14,0.093,-0.2115,-0.168
06-26-2025 18:32:32.283,-0.000488,0.035624,0.99552,1.54,0.245,-0.175,0.105,-0.219,-0.162
06-26-2025 18:32:32.323,-0.000976,0.03538,0.99796,1.4,0.245,-0.175,0.096,-0.219,-0.153
06-26-2025 18:32:32.363,0.000488,0.03782,0.994056,1.295,0.245,-0.105,0.099,-0.2145,-0.1605
06-26-2025 18:32:32.403,-0.002928,0.034892,0.99796,1.19,0.21,0,0.105,-0.213,-0.159
06-26-2025 18:32:32.443,-0.004148,0.03416,0.997472,1.015,0.21,-0.035,0.105,-0.213,-0.159
06-26-2025 18:32:32.483,-0.00366,0.03782,0.99796,0.875,0.175,-0.07,0.108,-0.2175,-0.162
06-26-2025 18:32:32.523,-0.001952,0.03294,0.99796,0.7,0.14,-0.035,0.1035,-0.2205,-0.1695
06-26-2025 18:32:32.563,-0.00732,0.03416,0.990884,0.63,0.105,-0.105,0.102,-0.2205,-0.156
06-26-2025 18:32:32.603,-0.001708,0.033184,0.99918,0.595,0.105,-0.14,0.096,-0.2145,-0.159
06-26-2025 18:32:32.643,-0.006344,0.029524,0.995032,0.63,0.14,-0.105,0.108,-0.2145,-0.1605
06-26-2025 18:32:32.683,-0.005856,0.028792,0.996008,0.7,0.14,-0.035,0.108,-0.219,-0.162
06-26-2025 18:32:32.723,-0.00488,0.033672,0.99552,0.7,0.14,0,0.1065,-0.213,-0.1605
06-26-2025 18:32:32.763,-0.008296,0.034404,0.997716,0.665,0.105,0,0.099,-0.2115,-0.159
06-26-2025 18:32:32.803,-0.003904,0.038064,0.995764,0.56,0.14,0,0.0975,-0.2205,-0.159
06-26-2025 18:32:32.843,-0.000488,0.03904,0.999424,0.35,0.105,0.07,0.108,-0.222,-0.1605
06-26-2025 18:32:32.883,-0.003172,0.039284,0.99918,0.105,0.07,0.07,0.1005,-0.2175,-0.1635
06-26-2025 18:32:32.923,-0.00854,0.037332,0.995764,-0.175,0.035,0,0.09,-0.21,-0.168
06-26-2025 18:32:32.963,-0.000244,0.039528,0.996008,-0.455,0,0.14,0.1005,-0.216,-0.159
06-26-2025 18:32:33.003,-0.000244,0.038796,0.993568,-0.875,-0.07,0.28,0.1005,-0.2175,-0.156
06-26-2025 18:32:33.043,-0.004636,0.036112,0.998204,-1.19,-0.14,0.245,0.1005,-0.225,-0.1605
06-26-2025 18:32:33.083,0.000244,0.035136,0.995276,-1.54,-0.175,0.315,0.0915,-0.207,-0.1635
06-26-2025 18:32:33.123,0.00244,0.029768,0.999424,-1.855,-0.175,0.455,0.0975,-0.2145,-0.1635
06-26-2025 18:32:33.163,-0.003904,0.0305,0.994544,-2.17,-0.28,0.49,0.0945,-0.2145,-0.165
06-26-2025 18:32:33.203,-0.004148,0.021716,0.998448,-2.31,-0.28,0.455,0.096,-0.2145,-0.165
06-26-2025 18:32:33.243,0.004392,0.020008,0.997228,-2.415,-0.315,0.56,0.096,-0.2085,-0.1665
06-26-2025 18:32:33.283,-0.008052,0.020252,0.998936,-2.625,-0.315,0.735,0.0885,-0.213,-0.1605
06-26-2025 18:32:33.323,-0.007076,0.01708,0.99918,-2.765,-0.35,0.805,0.09,-0.21,-0.1695
06-26-2025 18:32:33.363,-0.005612,0.0122,0.99674,-2.765,-0.385,0.735,0.093,-0.213,-0.171
06-26-2025 18:32:33.403,-0.003904,0.010736,0.993568,-2.73,-0.315,0.595,0.096,-0.2175,-0.1695
06-26-2025 18:32:33.443,0.000244,0.007076,1.0004,-2.625,-0.315,0.665,0.09,-0.2115,-0.165
06-26-2025 18:32:33.483,-0.00122,-0.000976,1.001132,-2.52,-0.245,0.665,0.099,-0.1995,-0.171
06-26-2025 18:32:33.523,0.010004,-0.004636,0.998448,-2.31,-0.28,0.665,0.096,-0.1995,-0.1635
06-26-2025 18:32:33.563,0.00122,-0.008784,1.00284,-1.89,-0.175,0.63,0.096,-0.204,-0.168
06-26-2025 18:32:33.603,0.009028,-0.007564,0.998448,-1.4,-0.14,0.35,0.093,-0.204,-0.165
06-26-2025 18:32:33.643,0.00122,-0.006344,1.003816,-0.805,-0.035,0.455,0.0915,-0.204,-0.168
06-26-2025 18:32:33.683,-0.000244,-0.006588,0.99308,-0.315,0.035,0.49,0.087,-0.198,-0.1755
06-26-2025 18:32:33.723,0.005368,-0.011468,1.012112,-0.105,0.105,0.315,0.096,-0.2025,-0.165
06-26-2025 18:32:33.763,-0.002928,-0.015372,1.000888,0.07,0.14,0.63,0.1035,-0.1905,-0.1725
06-26-2025 18:32:33.803,-0.0061,-0.002684,0.997716,0.49,0.245,1.05,0.09,-0.2055,-0.1665
06-26-2025 18:32:33.843,-0.009028,0.003172,1.000644,1.19,0.245,0.07,0.081,-0.2025,-0.162
06-26-2025 18:32:33.883,-0.012444,-0.006344,1.002596,2.065,0.175,-1.26,0.093,-0.207,-0.1605
06-26-2025 18:32:33.923,0.000244,-0.014396,1.002352,2.135,0.35,-0.735,0.0945,-0.204,-0.171
06-26-2025 18:32:33.963,-0.018056,-0.006588,1.008452,2.695,0.245,-0.595,0.093,-0.204,-0.156
06-26-2025 18:32:34.003,-0.013176,0.015372,0.989176,3.255,0.385,-1.575,0.099,-0.1995,-0.168
06-26-2025 18:32:34.043,-0.005856,0.013908,1.002352,3.01,0.14,-2.485,0.09,-0.204,-0.162
06-26-2025 18:32:34.083,-0.005124,0.02074,0.993568,2.73,0.07,-2.485,0.105,-0.2085,-0.168
06-26-2025 18:32:34.123,-0.010492,0.015128,1.009184,1.505,0.07,-1.365,0.096,-0.204,-0.168
06-26-2025 18:32:34.163,-0.000976,0.018788,0.998204,0.28,0,-0.42,0.0945,-0.2085,-0.1665
06-26-2025 18:32:34.203,-0.00854,0.010004,1.003328,-0.07,-0.07,-0.175,0.0975,-0.2025,-0.168
06-26-2025 18:32:34.243,-0.013664,0.026352,0.994056,-0.63,-0.14,-0.175,0.096,-0.2025,-0.1635
06-26-2025 18:32:34.283,-0.006344,0.010736,0.99674,-0.595,-0.14,-0.56,0.1005,-0.2025,-0.1665
06-26-2025 18:32:34.323,-0.008784,-0.000732,0.99674,-0.56,-0.14,-0.595,0.0945,-0.21,-0.1665
06-26-2025 18:32:34.363,-0.002928,0.008784,1.001376,-0.77,-0.21,-0.28,0.099,-0.2115,-0.1575
06-26-2025 18:32:34.403,-0.004636,0.025132,0.989908,-0.945,-0.175,-0.42,0.0915,-0.21,-0.1575
06-26-2025 18:32:34.443,-0.00488,0.004392,1.005524,-0.77,-0.385,-1.47,0.0975,-0.207,-0.165
06-26-2025 18:32:34.483,-0.00488,-0.012932,1.0004,-0.56,-0.315,-1.715,0.099,-0.21,-0.1725
06-26-2025 18:32:34.523,-0.008052,-0.003172,0.997472,-0.455,-0.21,-1.155,0.0975,-0.2175,-0.174
06-26-2025 18:32:34.563,0.002928,0.002928,0.998692,-0.28,-0.175,-1.155,0.096,-0.2145,-0.168
06-26-2025 18:32:34.603,0.002196,0.007808,0.99918,-0.455,-0.245,-1.54,0.099,-0.2055,-0.1725
06-26-2025 18:32:34.643,0.007564,0.003416,1.000888,-0.56,-0.245,-1.365,0.099,-0.207,-0.1695
06-26-2025 18:32:34.683,0.002928,-0.000976,0.99918,-0.945,-0.42,-0.98,0.105,-0.2025,-0.165
06-26-2025 18:32:34.723,0.00854,-0.006832,0.988932,-1.015,-0.14,-1.015,0.093,-0.2115,-0.1605
06-26-2025 18:32:34.763,0.010004,0.012688,1.00894,-1.295,-0.42,-0.77,0.0975,-0.213,-0.162
06-26-2025 18:32:34.803,0.000732,-0.000732,0.998692,-1.61,-0.385,-1.015,0.093,-0.201,-0.168
06-26-2025 18:32:34.843,-0.005368,-0.0122,1.00772,-1.365,-0.49,-1.61,0.1035,-0.201,-0.171
06-26-2025 18:32:34.883,-0.007076,-0.005612,1.017236,-1.33,-0.315,-0.91,0.0945,-0.213,-0.1635
06-26-2025 18:32:34.923,-0.007076,-0.001708,0.997472,-1.19,-0.455,-0.91,0.093,-0.2085,-0.1725
06-26-2025 18:32:34.963,-0.01708,-0.004148,1.001864,-0.56,-0.42,-2.415,0.099,-0.2115,-0.171
06-26-2025 18:32:35.003,-0.016104,-0.002196,1.00284,-0.21,-0.525,-3.01,0.111,-0.2025,-0.1695
06-26-2025 18:32:35.043,-0.026596,-0.002684,1.009184,0.035,-0.49,-2.835,0.102,-0.1995,-0.1665
06-26-2025 18:32:35.083,-0.036356,-0.002196,0.995764,-0.035,-0.56,-3.465,0.1125,-0.2055,-0.1725
06-26-2025 18:32:35.123,-0.030012,0,1.007476,0.035,-0.525,-3.92,0.1065,-0.201,-0.174
06-26-2025 18:32:35.163,-0.031964,-0.00732,1.006256,-0.14,-0.595,-3.955,0.1005,-0.2085,-0.1785
06-26-2025 18:32:35.203,-0.032696,0.00488,1.0004,-0.385,-0.595,-4.025,0.105,-0.2025,-0.168
06-26-2025 18:32:35.243,-0.0305,0.001708,1.00284,-0.525,-0.56,-4.585,0.1065,-0.21,-0.174
06-26-2025 18:32:35.283,-0.040748,-0.003172,1.003572,-0.525,-0.56,-4.83,0.099,-0.2115,-0.168
06-26-2025 18:32:35.323,-0.027572,-0.00122,0.993812,-0.665,-0.28,-4.795,0.1005,-0.198,-0.168
06-26-2025 18:32:35.363,-0.024644,0.001952,1.004548,-0.875,-0.49,-5.075,0.1065,-0.2055,-0.18
06-26-2025 18:32:35.403,-0.027572,-0.008296,1.001132,-0.56,-0.42,-5.74,0.1125,-0.2085,-0.174
06-26-2025 18:32:35.443,-0.025132,-0.009516,0.997228,-0.77,-0.56,-5.81,0.12,-0.201,-0.1695
06-26-2025 18:32:35.483,-0.014396,-0.010248,1.000644,-0.98,-0.525,-5.215,0.114,-0.201,-0.1755
06-26-2025 18:32:35.523,-0.010492,-0.005124,0.99308,-1.365,-0.735,-4.655,0.1155,-0.198,-0.174
06-26-2025 18:32:35.563,-0.028304,-0.018544,1.000644,-1.68,-0.98,-4.445,0.1185,-0.192,-0.1815
06-26-2025 18:32:35.603,-0.015128,-0.015616,1.018212,-1.925,-0.315,-3.395,0.117,-0.2085,-0.1725
06-26-2025 18:32:35.643,-0.00366,-0.011468,0.976732,-1.925,-0.14,-3.29,0.1095,-0.1995,-0.1815
06-26-2025 18:32:35.683,0.01342,-0.021716,1.003328,-0.945,-0.49,-4.48,0.1215,-0.2055,-0.1785
06-26-2025 18:32:35.723,0.022936,-0.044896,1.008208,0.07,-0.35,-4.725,0.1215,-0.2025,-0.1815
06-26-2025 18:32:35.763,0.015616,-0.041236,1.005524,0.91,0.035,-4.48,0.114,-0.2055,-0.186
06-26-2025 18:32:35.803,0.021472,-0.002196,0.983076,0.385,0.245,-3.08,0.1095,-0.2085,-0.174
06-26-2025 18:32:35.843,0.029768,-0.018788,0.993568,0.665,0.56,-2.065,0.12,-0.204,-0.1695
06-26-2025 18:32:35.883,0.0244,-0.0061,1.001864,0.98,0.21,-2.555,0.114,-0.2025,-0.1695
06-26-2025 18:32:35.923,0.064416,0.00488,0.9943,-0.035,-0.105,-2.345,0.1185,-0.204,-0.1785
06-26-2025 18:32:35.963,0.044408,0.007808,1.00406,-0.665,0.105,-1.645,0.1155,-0.1995,-0.1725
06-26-2025 18:32:36.003,0.033184,-0.002928,0.99186,-1.925,-0.175,-0.49,0.1155,-0.204,-0.1785
06-26-2025 18:32:36.043,0.027084,-0.022936,1.003084,-2.485,-0.14,-0.28,0.111,-0.2115,-0.18
06-26-2025 18:32:36.083,0.03904,-0.0122,0.99308,-2.59,-0.28,-0.595,0.105,-0.2025,-0.168
06-26-2025 18:32:36.123,0.034648,-0.00854,0.998936,-2.835,-0.105,-0.42,0.1155,-0.2025,-0.1875
06-26-2025 18:32:36.163,0.03416,-0.018056,0.984784,-2.275,-0.21,-0.525,0.111,-0.201,-0.1875
06-26-2025 18:32:36.203,0.03904,-0.029768,1.002352,-1.925,-0.35,-1.33,0.1155,-0.207,-0.183
06-26-2025 18:32:36.243,0.037088,-0.013908,0.991616,-1.925,-0.35,-1.75,0.1065,-0.195,-0.1785
06-26-2025 18:32:36.283,0.036112,-0.021228,0.991128,-1.89,-0.245,-1.715,0.114,-0.2115,-0.1755
06-26-2025 18:32:36.323,0.029036,-0.00976,1.002352,-2.695,-0.42,-1.225,0.12,-0.204,-0.177
06-26-2025 18:32:36.363,0.040748,-0.024644,0.990884,-3.465,-0.42,-0.665,0.1155,-0.198,-0.186
06-26-2025 18:32:36.403,0.037332,-0.031232,0.995276,-4.48,-0.49,0.105,0.117,-0.1995,-0.1845
06-26-2025 18:32:36.443,0.038552,-0.056608,0.993568,-4.55,-0.49,1.085,0.1215,-0.2025,-0.186
06-26-2025 18:32:36.483,0.029524,-0.041724,1.000888,-4.2,-0.42,0.945,0.117,-0.2025,-0.1905
06-26-2025 18:32:36.523,0.031476,-0.056852,0.989176,-3.36,-0.455,0.21,0.1155,-0.1905,-0.189
06-26-2025 18:32:36.563,0.028304,-0.054168,1.005768,-2.625,-0.35,0.455,0.1155,-0.201,-0.1815
06-26-2025 18:32:36.603,0.01952,-0.05612,1.0004,-2.1,-0.21,0.63,0.111,-0.192,-0.18
06-26-2025 18:32:36.643,0.01586,-0.060268,0.996008,-1.085,-0.35,-0.7,0.12,-0.1875,-0.1905
06-26-2025 18:32:36.683,0.005124,-0.063196,1.00528,-1.155,-0.315,-0.14,0.12,-0.1875,-0.186
06-26-2025 18:32:36.723,0.019032,-0.058316,0.997228,-1.995,0.105,2.835,0.1095,-0.1875,-0.195
06-26-2025 18:32:36.763,0.021228,-0.037576,0.997716,-2.625,0.07,3.99,0.1155,-0.186,-0.1845
06-26-2025 18:32:36.803,0.001464,-0.045872,1.013576,-2.45,-0.21,1.925,0.12,-0.192,-0.1785
06-26-2025 18:32:36.843,0.012688,-0.02684,0.9821,-2.1,-0.49,-0.105,0.1155,-0.198,-0.183
06-26-2025 18:32:36.883,0.01464,-0.067588,1.005036,-2.205,-0.105,-0.245,0.114,-0.192,-0.1845
06-26-2025 18:32:36.923,0.007808,-0.050996,0.996984,-1.015,-0.21,-0.91,0.1155,-0.186,-0.183
06-26-2025 18:32:36.963,-0.00122,-0.06832,1.002596,-0.735,-0.21,-2.555,0.126,-0.186,-0.1875
06-26-2025 18:32:37.003,0.00732,-0.07198,1.009672,0.56,-0.21,-3.465,0.114,-0.189,-0.1815
06-26-2025 18:32:37.043,-0.002684,-0.083936,0.997228,1.015,0.14,-2.52,0.1155,-0.2025,-0.1875
06-26-2025 18:32:37.083,0.00244,-0.059536,1.009672,1.54,0.175,-2.59,0.105,-0.1965,-0.1875
06-26-2025 18:32:37.123,0.00366,-0.067588,0.99308,1.925,0.035,-3.01,0.12,-0.186,-0.183
06-26-2025 18:32:37.163,0.005612,-0.063928,1.004792,1.645,0.175,-2.485,0.108,-0.192,-0.1845
06-26-2025 18:32:37.203,0.011956,-0.060512,1.009184,1.68,0.245,-1.435,0.108,-0.189,-0.189
06-26-2025 18:32:37.243,0.010248,-0.05856,1.000644,1.75,0.175,-1.54,0.1185,-0.201,-0.186
06-26-2025 18:32:37.283,0.011224,-0.060024,1.004304,1.785,0.21,-1.785,0.1185,-0.201,-0.186
06-26-2025 18:32:37.323,0.014152,-0.05978,1.009428,1.89,0.21,-0.84,0.1095,-0.1935,-0.189
06-26-2025 18:32:37.363,0.018788,-0.067832,0.988688,2.415,0.35,-1.26,0.1065,-0.198,-0.1815
06-26-2025 18:32:37.403,0.011468,-0.071492,1.007964,2.94,0.35,-1.225,0.117,-0.201,-0.1785
06-26-2025 18:32:37.443,0.023668,-0.048312,0.999912,2.765,0.56,0.35,0.1125,-0.2085,-0.1845
06-26-2025 18:32:37.483,0.037332,-0.042944,0.987712,3.185,0.49,-0.14,0.108,-0.1995,-0.183
06-26-2025 18:32:37.523,0.029036,-0.057828,1.00284,3.64,0.42,-1.68,0.108,-0.1995,-0.183
06-26-2025 18:32:37.563,0.020252,-0.055388,1.002596,3.955,0.525,-0.14,0.117,-0.207,-0.171
06-26-2025 18:32:37.603,0.027084,-0.028304,0.998204,3.92,0.735,0.595,0.114,-0.2115,-0.1755
06-26-2025 18:32:37.643,0.019276,-0.023424,0.996984,3.99,0.49,-0.805,0.1155,-0.207,-0.174
06-26-2025 18:32:37.683,0.022936,-0.043676,1.000156,3.92,0.42,-1.365,0.1095,-0.2025,-0.1695
06-26-2025 18:32:37.723,0.020496,-0.06588,0.98576,3.92,0.42,-0.42,0.111,-0.2025,-0.171
06-26-2025 18:32:37.763,0.000488,-0.02196,1.010648,3.955,0.56,0,0.1185,-0.2145,-0.1725
06-26-2025 18:32:37.803,-0.0061,-0.02562,0.994788,3.57,0.455,-0.91,0.114,-0.201,-0.18
06-26-2025 18:32:37.843,-0.006832,-0.03538,0.993568,3.57,0.42,-0.84,0.1185,-0.2025,-0.171
06-26-2025 18:32:37.883,-0.017324,-0.033916,1.003084,2.94,0.42,0,0.1125,-0.2175,-0.1785
06-26-2025 18:32:37.923,-0.008052,-0.003172,1.003572,2.73,0.14,-0.455,0.1125,-0.213,-0.1755
06-26-2025 18:32:37.963,-0.011712,-0.003172,1.013088,1.435,0.455,-0.98,0.1215,-0.21,-0.1785
06-26-2025 18:32:38.003,-0.01586,0.005612,0.9943,0.63,0.175,0.56,0.1245,-0.1995,-0.174
06-26-2025 18:32:38.043,-0.004148,0.016592,1.019432,0.42,0.035,-1.12,0.1215,-0.21,-0.1755
06-26-2025 18:32:38.083,0.015128,-0.016104,0.983808,-0.84,-0.315,-1.96,0.12,-0.201,-0.1725
06-26-2025 18:32:38.123,0.015128,-0.021472,0.999424,-1.645,0.07,1.225,0.1215,-0.2055,-0.171
06-26-2025 18:32:38.163,0.025864,-0.006832,1.002596,-2.17,-0.245,1.225,0.117,-0.2085,-0.171
06-26-2025 18:32:38.203,0.030256,-0.044896,0.996252,-1.085,-0.28,-1.12,0.1215,-0.21,-0.1695
06-26-2025 18:32:38.243,0.034404,-0.059536,1.00284,-0.98,-0.105,0.735,0.108,-0.213,-0.1725
06-26-2025 18:32:38.283,0.041968,-0.037332,0.982832,-0.245,0.07,1.12,0.111,-0.201,-0.177
06-26-2025 18:32:38.323,0.038796,-0.037088,1.007476,0.455,-0.07,-0.84,0.1185,-0.207,-0.183
06-26-2025 18:32:38.363,0.030256,-0.052948,0.990152,0.91,0.315,-0.385,0.114,-0.21,-0.168
06-26-2025 18:32:38.403,0.032452,-0.036356,1.002108,0.84,0.28,1.47,0.1185,-0.195,-0.18
06-26-2025 18:32:38.443,0.034648,-0.038796,0.99308,1.68,0.49,0.7,0.108,-0.2055,-0.1785
06-26-2025 18:32:38.483,0.004636,-0.054168,0.985272,3.395,0.35,-1.05,0.105,-0.2025,-0.1815
06-26-2025 18:32:38.523,-0.01098,-0.04514,1.011136,4.2,0.455,0.595,0.1155,-0.2055,-0.171
06-26-2025 18:32:38.563,-0.018056,-0.013664,0.975268,4.34,0.77,0.805,0.1155,-0.2085,-0.1755
06-26-2025 18:32:38.603,-0.007076,-0.052216,1.028704,5.6,0.595,-1.365,0.1155,-0.21,-0.1755
06-26-2025 18:32:38.643,0.002928,-0.026596,0.985028,5.81,0.875,-1.54,0.1125,-0.213,-0.174
06-26-2025 18:32:38.683,-0.03782,0.000488,1.046028,6.195,0.91,0.105,0.123,-0.2085,-0.183
06-26-2025 18:32:38.723,-0.011712,-0.033672,0.986492,7.525,0.945,-1.155,0.1125,-0.2145,-0.177
06-26-2025 18:32:38.763,-0.02074,-0.040748,1.001376,8.645,1.12,-1.82,0.114,-0.2085,-0.1665
06-26-2025 18:32:38.803,-0.022692,0.016592,1.0431,10.36,1.54,-1.365,0.1125,-0.2145,-0.1695
06-26-2025 18:32:38.843,-0.022692,0.028304,1.00406,12.285,1.47,-2.1,0.114,-0.225,-0.1665
06-26-2025 18:32:38.883,-0.020252,-0.018788,0.970388,13.055,1.75,-2.135,0.1155,-0.2235,-0.159
06-26-2025 18:32:38.923,-0.0427,0.099796,0.94428,11.095,1.54,-0.805,0.1065,-0.225,-0.1695
06-26-2025 18:32:38.963,-0.0488,0.132492,1.049688,7.49,1.05,-0.875,0.1185,-0.228,-0.1635
06-26-2025 18:32:39.003,-0.030256,0.118096,0.962336,5.425,0.665,-0.525,0.108,-0.231,-0.1635
06-26-2025 18:32:39.043,0.009272,0.149084,1.007232,0.98,0.595,1.435,0.1185,-0.2265,-0.156
06-26-2025 18:32:39.083,0.009516,0.091012,0.931348,-2.31,-0.455,0.21,0.12,-0.228,-0.156
06-26-2025 18:32:39.123,-0.0122,0.01098,0.937936,-4.48,-0.735,1.435,0.123,-0.234,-0.1575
06-26-2025 18:32:39.163,-0.011224,0.086376,0.970876,-6.895,-0.665,3.57,0.123,-0.2295,-0.153
06-26-2025 18:32:39.203,0.024644,0.049288,0.976976,-7.91,-0.56,0,0.1155,-0.2235,-0.1605
06-26-2025 18:32:39.243,0.031964,-0.016104,1.007476,-7.525,-1.4,0.805,0.117,-0.228,-0.1545
06-26-2025 18:32:39.283,0.041724,0.00732,0.987712,-6.545,-0.315,2.24,0.12,-0.216,-0.162
06-26-2025 18:32:39.323,0.038796,-0.017812,0.976,-4.795,-0.98,-0.84,0.1095,-0.222,-0.1635
06-26-2025 18:32:39.363,0.033184,-0.014396,1.016016,-3.185,-0.525,-2.59,0.12,-0.2265,-0.1605
06-26-2025 18:32:39.403,0.018788,-0.032452,0.988444,-2.45,-0.49,-0.735,0.1185,-0.2235,-0.159
06-26-2025 18:32:39.443,-0.021716,0.037088,0.98942,-1.365,-0.175,-1.295,0.117,-0.2175,-0.171
06-26-2025 18:32:39.483,-0.01952,0.02684,0.987468,-2.275,-0.91,-3.57,0.114,-0.2055,-0.165
06-26-2025 18:32:39.523,-0.008784,-0.040748,1.042856,-2.45,0,-0.595,0.117,-0.213,-0.1695
06-26-2025 18:32:39.563,-0.004148,-0.009028,0.986492,-1.785,0,1.015,0.114,-0.2145,-0.168
06-26-2025 18:32:39.603,0.005856,0.00488,0.995764,-1.19,-0.385,-2.17,0.1185,-0.2115,-0.1665
06-26-2025 18:32:39.643,-0.002684,-0.025376,1.015528,-0.35,-0.525,-2.94,0.12,-0.2175,-0.18
06-26-2025 18:32:39.683,-0.030012,0.09516,1.003572,-2.66,-0.35,0,0.123,-0.2175,-0.165
06-26-2025 18:32:39.723,-0.032208,0.054168,0.999912,-5.04,-0.98,-1.26,0.1185,-0.2175,-0.171
06-26-2025 18:32:39.763,-0.008296,-0.051484,1.007476,-7.525,-0.805,2.31,0.117,-0.21,-0.1665
06-26-2025 18:32:39.803,0.037332,-0.023424,0.995032,-7.665,-0.63,3.92,0.123,-0.21,-0.177
06-26-2025 18:32:39.843,0.015372,-0.037576,1.022116,-6.755,-1.085,0.525,0.1215,-0.21,-0.174
06-26-2025 18:32:39.883,0.033428,-0.029524,0.976976,-5.705,-0.945,-1.26,0.114,-0.198,-0.189
06-26-2025 18:32:39.923,0.05246,-0.074176,1.002108,-5.6,-0.35,3.115,0.117,-0.2085,-0.183
06-26-2025 18:32:39.963,0.08295999,-0.016348,0.966972,-3.78,-0.28,1.925,0.12,-0.1995,-0.1845
06-26-2025 18:32:40.003,0.069052,-0.031476,1.032364,-4.48,-0.595,0.49,0.117,-0.2055,-0.1815
06-26-2025 18:32:40.043,0.043676,-0.035868,1.025776,-5.915,-0.595,3.675,0.12,-0.195,-0.1905
06-26-2025 18:32:40.083,0.031476,-0.019276,1.027484,-7.35,0.035,7.21,0.1125,-0.1965,-0.189
06-26-2025 18:32:40.123,0.01586,-0.034648,1.045784,-7.175,-0.595,5.6,0.114,-0.1905,-0.189
06-26-2025 18:32:40.163,-0.01586,-0.116388,1.295152,-1.47,0.455,4.235,0.117,-0.192,-0.183
06-26-2025 18:32:40.203,-0.005368,0.093696,1.36518,-1.855,2.415,7.875,0.1065,-0.1935,-0.1935
06-26-2025 18:32:40.243,-0.030256,-0.033428,1.360056,5.425,3.605,6.055,0.1125,-0.183,-0.1875
06-26-2025 18:32:40.283,-0.022936,0.102236,1.280512,6.86,5.74,6.335,0.1035,-0.1965,-0.1845
06-26-2025 18:32:40.323,-0.040992,-0.004148,1.179496,10.325,7.455,4.97,0.1065,-0.1905,-0.183
06-26-2025 18:32:40.363,-0.074664,0.051484,1.133136,12.635,8.4,3.745,0.114,-0.195,-0.174
06-26-2025 18:32:40.403,-0.08174,0.055632,1.057984,10.605,7.35,4.34,0.114,-0.201,-0.192
06-26-2025 18:32:40.443,-0.071736,-0.04636,1.040172,13.72,4.62,1.925,0.126,-0.1875,-0.183
06-26-2025 18:32:40.483,-0.03904,0.053924,1.004304,9.835,2.835,4.445,0.123,-0.204,-0.1755
06-26-2025 18:32:40.523,0.042944,-0.106628,0.969412,16.135,1.96,1.085,0.1185,-0.1995,-0.186
06-26-2025 18:32:40.563,0.016836,0.07198,0.976976,11.83,4.41,3.29,0.1185,-0.21,-0.1755
06-26-2025 18:32:40.603,0.002196,-0.116876,0.96258,16.87,5.95,0.245,0.1215,-0.204,-0.1755
06-26-2025 18:32:40.643,-0.02074,0.043432,0.945256,14.63,8.225,1.68,0.129,-0.2025,-0.174
06-26-2025 18:32:40.683,-0.029524,-0.020252,0.903532,13.44,9.73,1.26,0.123,-0.2145,-0.1815
06-26-2025 18:32:40.723,-0.084668,0.023668,0.906948,15.68,11.305,-1.085,0.132,-0.213,-0.1695
06-26-2025 18:32:40.763,-0.107604,0.039528,0.874252,17.535,12.985,-2.485,0.1335,-0.198,-0.171
06-26-2025 18:32:40.803,-0.12322,0.059048,0.850828,22.925,14,-5.705,0.1365,-0.21,-0.1575
06-26-2025 18:32:40.843,-0.125416,0.089304,0.88328,25.445,14.945,-6.02,0.138,-0.2205,-0.1605
06-26-2025 18:32:40.883,-0.134688,0.076372,0.860344,29.855,15.225,-8.19,0.1305,-0.2175,-0.162
06-26-2025 18:32:40.923,-0.124684,0.155184,0.855952,26.88,14.84,-6.93,0.1605,-0.234,-0.153
06-26-2025 18:32:40.963,-0.117852,0.081252,0.870592,25.06,13.615,-6.65,0.1515,-0.231,-0.144
06-26-2025 18:32:41.003,-0.1159,0.1281,0.910364,21.315,11.935,-4.655,0.1605,-0.2355,-0.1365
06-26-2025 18:32:41.043,-0.092964,0.10248,0.93696,18.095,10.395,-2.765,0.1605,-0.2445,-0.1395
06-26-2025 18:32:41.083,-0.08662,0.108824,0.97234,15.995,9.275,-1.365,0.1635,-0.2415,-0.12
06-26-2025 18:32:41.123,-0.030256,-0.37942,1.056032,1.785,5.775,2.59,0.165,-0.2325,-0.1155
06-26-2025 18:32:41.163,-0.095648,-0.15372,0.952332,-13.3,-1.96,-8.33,0.1755,-0.2385,-0.1215
06-26-2025 18:32:41.203,-0.044652,0.154452,1.032364,-31.99,-3.885,-5.18,0.1785,-0.228,-0.1215
06-26-2025 18:32:41.243,-0.111996,0.325496,1.059692,-18.795,-4.375,-5.46,0.174,-0.219,-0.1275
06-26-2025 18:32:41.283,-0.046116,0.533384,1.014552,7.735,-0.175,-0.315,0.1755,-0.21,-0.1245
06-26-2025 18:32:41.323,0.071736,-0.564616,1.00894,2.415,2.94,20.44,0.1785,-0.219,-0.117
06-26-2025 18:32:41.363,-0.124684,-0.536068,0.976732,-12.39,-9.765,-9.835,0.171,-0.2145,-0.1125
06-26-2025 18:32:41.403,-0.101748,0.402356,1.025532,-46.725,-10.43,-2.94,0.168,-0.2145,-0.1245
06-26-2025 18:32:41.443,-0.073444,0.03538,1.03456,-34.16,-7.805,-2.45,0.1755,-0.1935,-0.1245
06-26-2025 18:32:41.483,-0.09394,0.194468,0.941108,-18.9,-4.2,-3.36,0.1695,-0.1845,-0.129
06-26-2025 18:32:41.523,-0.053192,0.173484,0.99918,-14.7,-3.535,1.225,0.1665,-0.18,-0.12
06-26-2025 18:32:41.563,-0.117364,0.062708,1.09312,-0.525,-5.39,-2.695,0.177,-0.177,-0.1155
06-26-2025 18:32:41.603,-0.111752,0.190808,1.046028,-1.96,-5.775,-0.56,0.18,-0.171,-0.114
06-26-2025 18:32:41.643,-0.121512,0.097356,0.977464,5.915,-4.48,-3.99,0.18,-0.171,-0.114
06-26-2025 18:32:41.683,-0.102968,0.130296,0.908412,10.745,-1.715,-3.71,0.1635,-0.1755,-0.1185
06-26-2025 18:32:41.723,-0.12322,0.06734399,0.953308,19.11,-0.14,-4.165,0.1665,-0.1695,-0.1125
06-26-2025 18:32:41.763,-0.132736,0.08662,0.970632,27.51,0.14,-4.76,0.162,-0.1785,-0.1305
06-26-2025 18:32:41.803,-0.113216,0.139324,0.935984,33.565,0.105,-4.935,0.159,-0.192,-0.1155
06-26-2025 18:32:41.843,-0.07686,0.127612,0.98088,37.765,0.455,-5.25,0.153,-0.2025,-0.1155
06-26-2025 18:32:41.883,-0.075396,0.149572,0.898408,38.64,2.66,-4.13,0.159,-0.213,-0.1005
06-26-2025 18:32:41.923,-0.104432,0.170312,0.874496,40.285,5.145,-2.45,0.153,-0.225,-0.093
06-26-2025 18:32:41.963,-0.128588,0.178364,0.886696,35.98,6.195,-1.015,0.1605,-0.2355,-0.0945
06-26-2025 18:32:42.003,-0.139568,0.1708,0.951356,27.86,4.69,-0.07,0.1605,-0.243,-0.0855
06-26-2025 18:32:42.043,-0.171044,0.14762,0.990884,17.15,2.275,0.245,0.168,-0.24,-0.081
06-26-2025 18:32:42.083,-0.129076,0.1647,0.96258,8.295,0.805,0.385,0.1605,-0.2475,-0.0675
06-26-2025 18:32:42.123,-0.08686399,0.161528,0.872788,-0.175,0.525,2.17,0.1665,-0.252,-0.066
06-26-2025 18:32:42.163,-0.066368,0.151036,0.892308,-3.43,1.26,3.465,0.1635,-0.246,-0.0675
06-26-2025 18:32:42.203,-0.076616,0.224724,0.88328,-9.625,1.855,6.02,0.168,-0.252,-0.06
06-26-2025 18:32:42.243,-0.069052,0.155916,0.878156,-14.84,3.605,7.28,0.1725,-0.249,-0.069
06-26-2025 18:32:42.283,-0.084912,0.204228,0.880352,-20.58,5.25,9.065,0.162,-0.2475,-0.075
06-26-2025 18:32:42.323,-0.103456,0.160064,0.94672,-20.93,4.725,9.275,0.165,-0.24,-0.084
06-26-2025 18:32:42.363,-0.10004,0.179584,0.996984,-19.95,3.64,9.065,0.165,-0.24,-0.084
06-26-2025 18:32:42.403,-0.106384,0.169336,1.028704,-18.9,2.905,8.925,0.171,-0.2295,-0.09
06-26-2025 18:32:42.443,-0.097112,0.208132,1.058472,-17.99,2.45,8.505,0.1635,-0.222,-0.087
06-26-2025 18:32:42.483,-0.020252,0.147864,1.118008,-18.025,1.365,8.155,0.1575,-0.2175,-0.099
06-26-2025 18:32:42.523,-0.092476,0.178364,1.041148,-21.49,0.07,8.505,0.168,-0.2145,-0.111
06-26-2025 18:32:42.563,-0.080032,0.141764,1.056764,-21.14,1.155,7.175,0.159,-0.2025,-0.1065
06-26-2025 18:32:42.603,-0.081008,0.10004,0.976976,-2.38,5.95,2.52,0.159,-0.2025,-0.1065
06-26-2025 18:32:42.643,-0.145912,0.063684,0.982344,1.54,6.65,5.215,0.156,-0.2055,-0.1095
06-26-2025 18:32:42.683,-0.138592,0.089304,0.996984,2.52,8.645,6.02,0.162,-0.207,-0.1185
06-26-2025 18:32:42.723,-0.023668,0.142496,1.231468,-12.565,1.47,7.665,0.1605,-0.2055,-0.117
06-26-2025 18:32:42.763,-0.186416,0.083204,1.182912,-0.49,-8.925,-2.8,0.159,-0.204,-0.1125
06-26-2025 18:32:42.803,-0.024644,0.050996,0.82838,-1.4,-6.125,-2.415,0.1545,-0.1995,-0.1215
06-26-2025 18:32:42.843,-0.087108,0.024644,0.809836,-1.12,-1.33,-1.225,0.1545,-0.1995,-0.1215
06-26-2025 18:32:42.883,-0.07442,0.229848,1.022848,-0.035,2.17,0.035,0.1545,-0.1995,-0.12
06-26-2025 18:32:42.923,-0.070028,-0.032452,1.090436,6.195,-1.4,-4.83,0.147,-0.2055,-0.1215
06-26-2025 18:32:42.963,-0.116388,0.217404,1.12728,1.4,-4.935,-3.29,0.1575,-0.2085,-0.1125
06-26-2025 18:32:43.003,-0.130052,0.106384,0.935496,1.12,-2.905,-2.52,0.15,-0.219,-0.1215
06-26-2025 18:32:43.043,-0.18056,0.12566,0.97478,-0.175,2.695,-0.175,0.153,-0.207,-0.1125
06-26-2025 18:32:43.083,-0.111264,0.101016,1.010892,-2.45,1.26,-1.435,0.1575,-0.207,-0.108
06-26-2025 18:32:43.123,-0.12444,0.115168,1.023336,-0.07,-3.185,-4.445,0.15,-0.216,-0.1155
06-26-2025 18:32:43.163,-0.113216,0.104188,0.97478,-1.575,-4.935,-1.75,0.165,-0.1995,-0.12
06-26-2025 18:32:43.203,-0.111264,0.122976,0.938424,0.14,-2.625,-0.875,0.1575,-0.213,-0.117
06-26-2025 18:32:43.243,-0.100772,0.100772,0.956968,-3.185,-0.595,0.175,0.156,-0.207,-0.117
06-26-2025 18:32:43.283,-0.03416,0.153476,1.036512,-5.985,-0.875,-0.56,0.1515,-0.2085,-0.117
06-26-2025 18:32:43.323,-0.008784,0.116144,1.032852,-4.06,-1.435,-0.875,0.1605,-0.204,-0.1185
06-26-2025 18:32:43.363,0.02318,0.059536,0.883524,-1.4,-1.365,-1.75,0.15,-0.213,-0.1185
06-26-2025 18:32:43.403,0.015372,0.064904,0.875472,-2.24,-1.19,-2.59,0.1545,-0.204,-0.1185
06-26-2025 18:32:43.443,0.017324,0.186904,0.962336,-4.165,0.07,0,0.153,-0.204,-0.12
06-26-2025 18:32:43.483,-0.114192,-0.114192,1.334192,3.85,3.605,-1.645,0.153,-0.207,-0.1245
06-26-2025 18:32:43.523,-0.120536,0.323788,1.13216,-7.175,11.48,3.5,0.168,-0.207,-0.123
06-26-2025 18:32:43.563,-0.07564,-0.09516,0.894016,5.04,5.285,-4.9,0.168,-0.2085,-0.12
06-26-2025 18:32:43.603,-0.267912,0.07905599,0.970876,3.745,2.415,-3.605,0.1725,-0.2175,-0.129
06-26-2025 18:32:43.643,-0.217404,0.089548,1.014552,3.185,9.485,-3.57,0.1725,-0.2115,-0.1185
06-26-2025 18:32:43.683,-0.15982,0.08662,1.022116,5.6,8.995,-5.705,0.165,-0.213,-0.123
06-26-2025 18:32:43.723,-0.123464,0.124196,1.051396,4.865,1.47,-6.09,0.18,-0.2175,-0.129
06-26-2025 18:32:43.763,-0.1952,0.043188,1.074576,8.61,0.175,-6.44,0.1755,-0.21,-0.126
06-26-2025 18:32:43.803,-0.139812,0.100772,0.913048,6.615,5.32,-4.27,0.177,-0.2145,-0.1215
06-26-2025 18:32:43.843,-0.147132,0.2074,0.842288,1.435,2.135,-4.795,0.186,-0.225,-0.12
06-26-2025 18:32:43.883,-0.199104,-0.050508,1.107272,-1.015,3.64,-3.5,0.18,-0.225,-0.1275
06-26-2025 18:32:43.923,-0.15738,0.123464,1.057496,1.925,2.52,-1.89,0.1875,-0.2295,-0.126
06-26-2025 18:32:43.963,-0.190564,0.11834,1.014552,-1.715,0,1.505,0.186,-0.2235,-0.1215
06-26-2025 18:32:44.003,-0.190808,0.163968,0.865712,-5.775,-0.315,5.075,0.1875,-0.222,-0.126
06-26-2025 18:32:44.043,-0.20618,0.115656,1.034072,-12.215,-1.75,4.06,0.183,-0.222,-0.123
06-26-2025 18:32:44.083,-0.120048,0.055388,1.008452,-17.22,1.645,6.72,0.1725,-0.213,-0.1245
06-26-2025 18:32:44.123,-0.079788,0.036356,1.06262,-10.465,-0.63,6.72,0.1785,-0.219,-0.126
06-26-2025 18:32:44.163,-0.175436,-0.01342,1.017236,-8.785,-3.99,10.325,0.1755,-0.2085,-0.138
06-26-2025 18:32:44.203,-0.173728,-0.015372,0.989664,-5.705,-2.135,9.345,0.174,-0.2115,-0.1305
06-26-2025 18:32:44.243,-0.182024,0.006344,0.956236,-7.735,-0.63,6.265,0.171,-0.1995,-0.1275
06-26-2025 18:32:44.283,-0.115412,0.007564,1.031144,-6.72,-1.61,6.965,0.162,-0.198,-0.135
06-26-2025 18:32:44.323,-0.158112,0.06344,1.117032,-3.43,-2.765,9.835,0.165,-0.2025,-0.1335
06-26-2025 18:32:44.363,-0.147132,0.009272,1.035536,-2.03,-2.835,10.395,0.1635,-0.1935,-0.129
06-26-2025 18:32:44.403,-0.173728,0.078812,0.970876,-3.43,-5.775,7.35,0.144,-0.195,-0.144
06-26-2025 18:32:44.443,-0.155672,0.023424,0.926224,-4.095,-6.3,4.445,0.159,-0.207,-0.1485
06-26-2025 18:32:44.483,-0.112972,-0.005856,0.985028,-3.675,-4.27,6.65,0.1515,-0.1995,-0.1395
06-26-2025 18:32:44.523,-0.093696,0.093452,1.06872,-4.27,-3.5,10.815,0.1485,-0.1965,-0.132
06-26-2025 18:32:44.563,-0.040016,-0.001952,1.132648,3.43,-3.22,4.095,0.144,-0.204,-0.144
06-26-2025 18:32:44.603,0.098332,0.05978,1.043588,2.135,-2.52,-4.375,0.15,-0.1995,-0.1395
06-26-2025 18:32:44.643,-0.009272,0.0976,0.962336,4.235,-1.715,-10.255,0.1485,-0.201,-0.129
06-26-2025 18:32:44.683,0.00122,0.068808,0.918904,6.02,5.25,-9.45,0.141,-0.1965,-0.141
06-26-2025 18:32:44.723,0.027816,0.05612,1.052128,3.43,9.555,-6.405,0.156,-0.204,-0.144
06-26-2025 18:32:44.763,0.034404,0.023424,1.031144,4.2,8.33,-7.49,0.147,-0.204,-0.132
06-26-2025 18:32:44.803,-0.01098,0.056852,1.001132,4.34,7.105,-7.56,0.1605,-0.204,-0.1335
06-26-2025 18:32:44.843,-0.122488,0.122976,0.951112,3.115,8.155,-6.405,0.1665,-0.2085,-0.1365
06-26-2025 18:32:44.883,-0.105408,-0.00976,0.881328,2.38,10.78,-5.285,0.168,-0.207,-0.138
06-26-2025 18:32:44.923,-0.219844,0.176168,0.954284,-3.395,11.34,-2.835,0.165,-0.21,-0.1335
06-26-2025 18:32:44.963,-0.182756,-0.012444,1.042124,-2.135,10.185,-1.4,0.1785,-0.216,-0.141
06-26-2025 18:32:45.003,-0.244244,0.05856,1.12606,-2.31,8.155,0.945,0.1695,-0.213,-0.1395
06-26-2025 18:32:45.043,-0.3172,0.144204,0.971852,-4.13,5.53,1.05,0.1725,-0.204,-0.1455
06-26-2025 18:32:45.083,-0.303048,-0.08784,1.000644,-1.715,3.99,-5.005,0.195,-0.204,-0.141
06-26-2025 18:32:45.123,-0.367708,0.161284,0.929884,-10.43,2.38,-2.625,0.186,-0.207,-0.1515
06-26-2025 18:32:45.163,-0.222284,0.009516,1.129964,-8.61,2.695,0.805,0.18,-0.2025,-0.1395
06-26-2025 18:32:45.203,-0.193736,0.142008,1.173396,-8.715,-0.525,5.88,0.1875,-0.2055,-0.153
06-26-2025 18:32:45.243,-0.260104,-0.104188,1.054812,-1.855,-5.67,3.325,0.18,-0.201,-0.156
06-26-2025 18:32:45.283,-0.27816,0.023912,0.875472,-5.215,-5.705,3.185,0.1755,-0.1965,-0.1485
06-26-2025 18:32:45.323,-0.23302,-0.132004,0.941352,-4.13,-3.22,-1.12,0.18,-0.1995,-0.153
06-26-2025 18:32:45.363,-0.204228,0.157136,1.006256,-9.275,-2.625,2.135,0.171,-0.1965,-0.1455
06-26-2025 18:32:45.403,-0.123464,-0.074664,1.123376,-3.045,-3.57,0.035,0.171,-0.1935,-0.15
06-26-2025 18:32:45.443,-0.182268,0.008052,1.051884,-3.535,-5.075,0.945,0.171,-0.1935,-0.15
06-26-2025 18:32:45.483,-0.173972,-0.11712,1.04188,3.08,-6.79,0.175,0.1695,-0.1875,-0.153
06-26-2025 18:32:45.523,-0.317932,0.020984,0.948672,3.78,-7.175,2.625,0.1665,-0.189,-0.1485
06-26-2025 18:32:45.563,-0.178364,-0.09272,1.069208,6.965,-6.51,1.26,0.1695,-0.1995,-0.147
06-26-2025 18:32:45.603,-0.152256,0.019276,1.023336,2.765,-6.72,-0.665,0.171,-0.198,-0.147
06-26-2025 18:32:45.643,-0.143228,0.0488,1.026752,5.18,-9.87,-1.015,0.1695,-0.195,-0.1545
06-26-2025 18:32:45.683,-0.133224,0.060024,1.0065,3.885,-11.48,3.045,0.156,-0.183,-0.138
06-26-2025 18:32:45.723,-0.14518,0.057584,0.978928,2.1,-9.59,3.465,0.156,-0.1965,-0.1485
06-26-2025 18:32:45.763,-0.107848,0.053192,0.921832,-3.43,-9.24,0.98,0.159,-0.198,-0.147
06-26-2025 18:32:45.803,-0.101504,0.041968,1.04188,-5.075,-9.94,-1.505,0.147,-0.1845,-0.1365
06-26-2025 18:32:45.843,-0.01098,0.004148,1.057252,-5.145,-8.995,0.175,0.141,-0.1965,-0.138
06-26-2025 18:32:45.883,-0.008784,0.011956,1.028948,-2.66,-8.995,1.12,0.1485,-0.189,-0.1395
06-26-2025 18:32:45.923,-0.015128,-0.055144,0.986736,-1.26,-9.52,-0.665,0.1425,-0.186,-0.1395
06-26-2025 18:32:45.963,-0.006588,-0.069784,0.967216,0.735,-6.825,-2.625,0.1395,-0.1875,-0.1425
06-26-2025 18:32:46.003,0.017324,-0.007076,0.963068,2.1,-3.605,-0.245,0.1425,-0.1815,-0.1335
06-26-2025 18:32:46.043,0.043676,-0.015616,1.01382,4.515,-2.45,0.665,0.138,-0.1995,-0.1485
06-26-2025 18:32:46.083,0.01098,0.01586,1.014552,4.935,-2.485,-0.945,0.138,-0.192,-0.1365
06-26-2025 18:32:46.123,-0.005612,-0.0061,0.97478,4.795,-0.84,-1.645,0.1305,-0.1845,-0.1365
06-26-2025 18:32:46.163,-0.00976,0.055388,0.92842,4.515,1.015,-0.525,0.132,-0.1905,-0.147
06-26-2025 18:32:46.203,-0.03416,0.065636,0.9882,3.395,1.995,0.98,0.144,-0.186,-0.1305
06-26-2025 18:32:46.243,-0.07686,0.025376,1.027972,2.38,2.45,0.315,0.1335,-0.192,-0.138
06-26-2025 18:32:46.283,-0.105896,0.05978,1.053592,-0.28,1.575,-0.7,0.138,-0.1905,-0.1305
06-26-2025 18:32:46.323,-0.113948,0.028304,1.012112,-0.105,-0.07,-0.91,0.1455,-0.1965,-0.1395
06-26-2025 18:32:46.363,-0.155184,0.031232,1.017724,0,-0.735,1.82,0.132,-0.1965,-0.1335
06-26-2025 18:32:46.403,-0.13908,0.001464,0.981124,-0.7,-1.12,1.19,0.1425,-0.1875,-0.138
06-26-2025 18:32:46.443,-0.116876,0.000488,1.029192,-1.68,-1.47,-0.28,0.138,-0.1935,-0.138
06-26-2025 18:32:46.483,-0.025132,-0.096868,1.052616,0.7,-2.59,-0.805,0.138,-0.195,-0.138
06-26-2025 18:32:46.523,-0.066368,0.056608,1.020652,-2.695,-2.94,1.47,0.1365,-0.192,-0.1425
06-26-2025 18:32:46.563,0.004636,0.009516,0.956724,-2.1,-2.135,-0.315,0.132,-0.1935,-0.135
06-26-2025 18:32:46.603,-0.055876,-0.002196,1.004792,-2.555,-1.89,0,0.126,-0.192,-0.129
06-26-2025 18:32:46.643,-0.000732,-0.025376,0.996984,-0.665,-1.085,1.33,0.132,-0.189,-0.135
06-26-2025 18:32:46.683,-0.062708,0.020008,1.012356,-1.47,-0.875,1.96,0.1275,-0.1905,-0.135
06-26-2025 18:32:46.723,-0.105652,0.154696,1.091412,0.525,-0.735,1.435,0.129,-0.186,-0.1335
06-26-2025 18:32:46.763,-0.125416,0.020252,1.005768,0.28,-2.17,0.875,0.1365,-0.192,-0.135
06-26-2025 18:32:46.803,-0.129564,-0.026596,0.991616,4.2,-1.645,-0.77,0.1215,-0.1935,-0.141
06-26-2025 18:32:46.843,-0.092964,-0.01952,1.022116,2.17,-2.205,-0.49,0.1275,-0.1875,-0.1245
06-26-2025 18:32:46.883,-0.125172,-0.0183,1.022604,4.165,-3.745,-1.61,0.1275,-0.1995,-0.1215
06-26-2025 18:32:46.923,-0.117608,0.038064,1.041636,3.955,-4.865,-1.54,0.12,-0.2025,-0.129
06-26-2025 18:32:46.963,-0.11102,0.116632,1.014552,6.3,-4.865,-1.925,0.12,-0.1935,-0.126
06-26-2025 18:32:47.003,-0.03904,0.073444,0.983076,5.075,-6.055,-1.61,0.1185,-0.1935,-0.1275
06-26-2025 18:32:47.043,-0.06832,0.021228,0.98942,5.285,-6.195,-2.38,0.1245,-0.195,-0.1275
06-26-2025 18:32:47.083,-0.014884,0.020984,1.050664,4.585,-5.88,-2.065,0.123,-0.1995,-0.129
06-26-2025 18:32:47.123,0.014396,0.056852,1.01626,-0.07,-5.705,0.21,0.1215,-0.1965,-0.117
06-26-2025 18:32:47.163,0.09516,0.08662,0.987468,0.77,-5.25,-1.435,0.1185,-0.198,-0.1095
06-26-2025 18:32:47.203,0.07515199,0.081008,0.93086,-3.99,-3.605,0.035,0.1155,-0.201,-0.1185
06-26-2025 18:32:47.243,0.107604,0.00732,0.984784,-3.01,-1.295,1.715,0.12,-0.2055,-0.12
06-26-2025 18:32:47.283,0.033916,0.06222,0.99796,-5.74,-0.595,1.995,0.1155,-0.1995,-0.12
06-26-2025 18:32:47.323,0.0122,-0.022692,1.018944,-6.265,0.105,1.54,0.1155,-0.195,-0.1275
06-26-2025 18:32:47.363,-0.042212,0.01708,0.956724,-7.56,0.35,2.66,0.108,-0.198,-0.1215
06-26-2025 18:32:47.403,-0.032696,-0.05246,1.040172,-5.53,0.315,3.885,0.1095,-0.192,-0.1185
06-26-2025 18:32:47.443,-0.069052,0.02562,1.013332,-4.41,0.105,2.66,0.1125,-0.1875,-0.126
06-26-2025 18:32:47.483,-0.058316,-0.093208,0.996252,-1.89,0.91,0.7,0.114,-0.189,-0.1275
06-26-2025 18:32:47.523,-0.042456,-0.012688,0.998936,-1.435,0.525,0.84,0.1155,-0.183,-0.12
06-26-2025 18:32:47.563,-0.079788,0.005856,1.028216,0,-0.84,1.085,0.1095,-0.1845,-0.1215
06-26-2025 18:32:47.603,-0.056852,-0.028548,1.035048,1.295,-0.77,0.665,0.1095,-0.1905,-0.1275
06-26-2025 18:32:47.643,0.056364,-0.01952,1.031388,1.505,-1.19,-0.455,0.1095,-0.1755,-0.1245
06-26-2025 18:32:47.683,-0.028548,-0.007076,0.994788,2.065,-1.785,-1.05,0.1095,-0.1755,-0.1245
06-26-2025 18:32:47.723,-0.024156,0.000244,1.031876,1.505,-1.365,-0.945,0.108,-0.1875,-0.132
06-26-2025 18:32:47.763,-0.022448,-0.0061,1.021384,1.155,-1.785,-1.435,0.117,-0.1905,-0.114
06-26-2025 18:32:47.803,-0.028304,0.018056,0.980148,0.385,-2.59,-1.435,0.12,-0.1815,-0.126
06-26-2025 18:32:47.843,-0.033916,0.028304,0.997716,-0.875,-2.38,0.07,0.108,-0.1815,-0.126
06-26-2025 18:32:47.883,-0.02928,-0.026352,0.942572,-2.03,-2.345,0.56,0.114,-0.1965,-0.1155
06-26-2025 18:32:47.923,0.020496,0.004392,0.994056,-3.115,-2.94,0.21,0.114,-0.1965,-0.1155
06-26-2025 18:32:47.963,0.041724,0.016592,0.993324,-3.815,-1.96,0.21,0.108,-0.1875,-0.1215
06-26-2025 18:32:48.003,0.060268,-0.024156,0.96868,-4.375,-0.735,0.91,0.1005,-0.177,-0.117
06-26-2025 18:32:48.043,0.083936,-0.003416,0.942328,-5.285,-0.525,1.19,0.1005,-0.18,-0.114
06-26-2025 18:32:48.083,0.010492,-0.025132,1.015772,-5.88,0.28,1.225,0.1095,-0.1845,-0.1185
06-26-2025 18:32:48.123,-0.015372,-0.049532,0.981368,-6.335,1.47,2.135,0.1065,-0.18,-0.12
06-26-2025 18:32:48.163,-0.133468,0.04392,1.041636,-6.475,1.4,3.22,0.102,-0.174,-0.1185
06-26-2025 18:32:48.203,-0.000976,-0.068808,1.017968,-5.565,1.575,2.975,0.1005,-0.1785,-0.1215
06-26-2025 18:32:48.243,-0.027084,-0.044408,1.03578,-4.865,2.1,1.54,0.108,-0.1785,-0.1215
06-26-2025 18:32:48.283,-0.027816,-0.074176,1.005768,-3.5,1.855,0.84,0.114,-0.1665,-0.1215
06-26-2025 18:32:48.323,-0.048556,-0.107604,0.996008,-2.205,1.295,1.47,0.108,-0.171,-0.129
06-26-2025 18:32:48.363,-0.058804,-0.037332,1.0309,-2.1,0.945,1.61,0.111,-0.171,-0.126
06-26-2025 18:32:48.403,-0.05002,-0.062708,1.024068,-1.68,0.385,0.105,0.105,-0.174,-0.1275
06-26-2025 18:32:48.443,-0.044408,-0.052948,1.012356,-1.575,-0.525,0.175,0.1035,-0.1665,-0.123
06-26-2025 18:32:48.483,-0.050996,-0.050508,1.005524,-1.82,-1.085,0.77,0.108,-0.177,-0.1365
06-26-2025 18:32:48.523,-0.040504,-0.038796,1.003084,-2.625,-1.085,1.19,0.1065,-0.1635,-0.132
06-26-2025 18:32:48.563,-0.012932,-0.045384,1.00894,-2.975,-1.435,0.56,0.1035,-0.1635,-0.129
06-26-2025 18:32:48.603,-0.017324,-0.044652,1.012356,-3.15,-2.1,-0.14,0.1065,-0.168,-0.138
06-26-2025 18:32:48.643,0.036356,-0.072224,0.962092,-4.585,-1.82,1.47,0.1035,-0.1755,-0.129
06-26-2025 18:32:48.683,-0.1525,-0.147864,0.848144,-4.375,-2.1,2.38,0.0945,-0.1635,-0.126
06-26-2025 18:32:48.723,-0.01342,-0.060024,0.997228,-5.565,-2.03,2.135,0.099,-0.177,-0.1245
06-26-2025 18:32:48.763,0.0122,-0.076616,1.022116,-5.95,-1.785,0.875,0.102,-0.1635,-0.12
06-26-2025 18:32:48.803,0.026352,-0.1037,1.00406,-6.37,-1.47,2.52,0.099,-0.1575,-0.126
06-26-2025 18:32:48.843,0.020252,-0.074908,1.000888,-5.215,-1.89,3.15,0.102,-0.156,-0.123
06-26-2025 18:32:48.883,0.032208,-0.1037,0.989908,-4.76,-1.05,2.03,0.0975,-0.162,-0.126
06-26-2025 18:32:48.923,0.043188,-0.078568,1.023092,-4.585,-0.28,0.56,0.0975,-0.1605,-0.1335
06-26-2025 18:32:48.963,0.025376,-0.129564,0.987224,-3.5,-0.035,0.14,0.105,-0.1545,-0.129
06-26-2025 18:32:49.003,0.011224,-0.085888,1.013332,-2.94,0.35,0.805,0.1035,-0.159,-0.132
06-26-2025 18:32:49.043,0.020008,-0.11834,0.987468,-2.38,0.805,0.035,0.096,-0.1575,-0.1245
06-26-2025 18:32:49.083,0.001952,-0.115168,0.980636,-2.73,0.875,-0.14,0.0945,-0.147,-0.129
06-26-2025 18:32:49.123,-0.01464,-0.179584,1.011624,-3.01,0.14,1.575,0.0975,-0.15,-0.1335
06-26-2025 18:32:49.163,-0.034648,-0.03172,1.008208,-2.45,0.91,2.835,0.0975,-0.156,-0.1335
06-26-2025 18:32:49.203,-0.037332,-0.166652,1.02114,-0.455,-0.91,0.735,0.102,-0.15,-0.1335
06-26-2025 18:32:49.243,-0.06734399,-0.102236,1.009916,-1.085,-1.295,0.84,0.1095,-0.1515,-0.1305
06-26-2025 18:32:49.283,-0.038552,-0.112484,1.01382,-1.54,-1.015,-1.19,0.0945,-0.1455,-0.129
06-26-2025 18:32:49.323,-0.010004,-0.136884,0.988688,0.315,-1.365,-1.995,0.0975,-0.1515,-0.1215
06-26-2025 18:32:49.363,0.037088,-0.009028,1.02602,-2.66,-2.59,-0.42,0.1005,-0.144,-0.132
06-26-2025 18:32:49.403,0.025864,-0.174704,1.016504,-0.98,-1.47,0.63,0.1035,-0.147,-0.132
06-26-2025 18:32:49.443,0.056364,-0.044164,0.96014,-3.815,-1.54,2.52,0.093,-0.141,-0.1335
06-26-2025 18:32:49.483,0.031476,-0.168116,0.980392,-2.065,-1.995,0,0.093,-0.147,-0.129
06-26-2025 18:32:49.523,0.005368,-0.091988,1.032608,-3.255,-0.84,1.995,0.096,-0.1395,-0.126
06-26-2025 18:32:49.563,0.029036,-0.142008,0.99796,-2.03,-0.28,0.525,0.0975,-0.144,-0.1305
06-26-2025 18:32:49.603,-0.015128,-0.170068,0.991372,-0.28,-0.875,0.035,0.093,-0.15,-0.1305
06-26-2025 18:32:49.643,-0.018544,-0.14396,1.002596,0.735,-1.12,-0.385,0.0885,-0.1395,-0.1305
06-26-2025 18:32:49.683,-0.005124,-0.169336,1.002352,2.66,-0.455,-0.385,0.096,-0.1455,-0.1305
06-26-2025 18:32:49.723,-0.027816,-0.124684,0.984052,3.465,-1.54,-1.68,0.1005,-0.1425,-0.132
06-26-2025 18:32:49.763,-0.036844,-0.177632,1.0187,4.9,-2.59,-1.54,0.0915,-0.138,-0.129
06-26-2025 18:32:49.803,-0.07198,-0.127368,1.0187,5.565,-2.45,0.945,0.0855,-0.147,-0.126
06-26-2025 18:32:49.843,0.007076,-0.111752,1.024068,5.635,-3.64,0.105,0.0915,-0.147,-0.132
06-26-2025 18:32:49.883,0.042456,-0.074664,1.012356,5.075,-4.13,-1.54,0.0825,-0.1515,-0.1305
06-26-2025 18:32:49.923,0.134932,-0.08052,0.981612,4.725,-2.59,-2.31,0.0885,-0.1515,-0.129
06-26-2025 18:32:49.963,0.122488,-0.07076,0.97112,5.005,-1.085,-2.065,0.09,-0.1515,-0.126
06-26-2025 18:32:50.003,0.0915,-0.083448,0.996496,4.235,-0.98,-3.395,0.087,-0.1545,-0.1245
06-26-2025 18:32:50.043,0.048556,-0.095404,0.988932,3.325,0.14,-4.165,0.09,-0.1545,-0.1215
06-26-2025 18:32:50.083,0.023668,-0.077592,0.973072,1.225,1.015,-1.225,0.09,-0.156,-0.12
06-26-2025 18:32:50.123,0.01952,-0.06954,1.001376,-0.14,-0.315,1.645,0.0885,-0.165,-0.117
06-26-2025 18:32:50.163,0.007564,-0.089548,1.016748,-2.345,-0.175,2.695,0.093,-0.153,-0.1185
06-26-2025 18:32:50.203,0.026596,-0.068564,0.99186,-3.36,0.56,2.065,0.0915,-0.1485,-0.123
06-26-2025 18:32:50.243,0.046604,-0.107116,0.985272,-3.01,0.28,0.49,0.0855,-0.153,-0.126
06-26-2025 18:32:50.283,0.032208,-0.101016,1.022604,-2.03,0.14,-1.68,0.0885,-0.1545,-0.1275
06-26-2025 18:32:50.323,0.024156,-0.104432,0.988688,-3.045,1.435,-1.435,0.09,-0.15,-0.1275
06-26-2025 18:32:50.363,0.041968,-0.119316,0.97112,-2.17,1.435,-0.56,0.087,-0.1485,-0.1305
06-26-2025 18:32:50.403,0.026108,-0.113704,0.992104,-2.31,1.26,1.715,0.0915,-0.1515,-0.126
06-26-2025 18:32:50.443,0.023424,-0.130296,1.014308,-2.03,1.54,1.96,0.087,-0.1515,-0.1185
06-26-2025 18:32:50.483,-0.00122,-0.102968,0.998204,-1.4,1.19,1.715,0.096,-0.1485,-0.1215
06-26-2025 18:32:50.523,-0.008296,-0.135664,0.991616,0.175,0.84,0.595,0.087,-0.147,-0.1215
06-26-2025 18:32:50.563,-0.008296,-0.140544,1.014308,1.085,1.295,-1.26,0.0885,-0.15,-0.1245
06-26-2025 18:32:50.603,0.000488,-0.139812,1.004548,1.785,1.295,-1.785,0.093,-0.1515,-0.1215
06-26-2025 18:32:50.643,-0.022936,-0.134688,0.991372,3.185,0.49,-1.61,0.09,-0.1395,-0.1275
06-26-2025 18:32:50.683,0.032208,-0.172752,0.97722,3.045,0.105,-0.07,0.093,-0.147,-0.1245
06-26-2025 18:32:50.723,-0.011224,-0.12444,1.03944,3.78,-0.035,0.91,0.0975,-0.1515,-0.129
06-26-2025 18:32:50.763,0.011468,-0.1281,1.00894,4.48,-0.875,0.945,0.099,-0.1545,-0.1275
06-26-2025 18:32:50.803,0.0122,-0.10492,1.00162,5.285,-0.595,0.21,0.096,-0.15,-0.1185
06-26-2025 18:32:50.843,0.006344,-0.09467199,0.99186,5.845,0,-1.61,0.09,-0.153,-0.1245
06-26-2025 18:32:50.883,0.030012,-0.074664,0.99918,5.075,0.07,-2.31,0.09,-0.153,-0.12
06-26-2025 18:32:50.923,0.0305,-0.08418,1.02114,5.145,-0.315,-2.135,0.0855,-0.159,-0.126
06-26-2025 18:32:50.963,0.010492,-0.086376,0.95892,3.395,-0.105,-0.07,0.093,-0.1635,-0.1275
06-26-2025 18:32:51.003,0.036844,-0.103456,0.961848,2.45,0,0.805,0.0915,-0.1635,-0.1245
06-26-2025 18:32:51.043,0.062708,-0.085156,1.016748,1.435,0.175,0.875,0.0975,-0.156,-0.1215
06-26-2025 18:32:51.083,0.004392,-0.093452,1.024556,1.19,0.455,0.175,0.0795,-0.156,-0.1275
06-26-2025 18:32:51.123,0.031476,-0.056608,0.965264,1.12,1.26,-1.12,0.09,-0.156,-0.123
06-26-2025 18:32:51.163,0.007564,-0.093696,0.976732,1.19,1.155,-1.225,0.099,-0.165,-0.123
06-26-2025 18:32:51.203,0.015128,-0.096136,1.0187,1.295,0.525,-1.155,0.087,-0.162,-0.1275
06-26-2025 18:32:51.243,0.008784,-0.081252,1.007232,0.525,1.015,0.805,0.0885,-0.1605,-0.1245
06-26-2025 18:32:51.283,0.014152,-0.119072,1.011868,1.26,0.63,1.015,0.09,-0.1575,-0.123
06-26-2025 18:32:51.323,0.015372,-0.083936,1.003816,1.155,0.385,1.365,0.09,-0.1605,-0.1185
06-26-2025 18:32:51.363,-0.009272,-0.110288,1.031876,2.695,0.595,-0.245,0.093,-0.1605,-0.1335
06-26-2025 18:32:51.403,0.015128,-0.0732,0.996008,3.01,1.015,-0.91,0.0885,-0.159,-0.1245
06-26-2025 18:32:51.443,0.032452,-0.07442,1.04554,3.78,0.21,-1.505,0.096,-0.156,-0.1275
06-26-2025 18:32:51.483,-0.01098,-0.177876,0.988444,4.41,-0.105,0.14,0.0855,-0.162,-0.1215
06-26-2025 18:32:51.523,-0.011956,-0.061976,0.973804,3.395,0.42,-0.105,0.0795,-0.1605,-0.1245
06-26-2025 18:32:51.563,0.026108,-0.07124799,1.031632,3.15,-0.35,-0.21,0.093,-0.162,-0.117
06-26-2025 18:32:51.603,0.040016,-0.061,1.016016,4.795,-0.245,-0.49,0.0945,-0.153,-0.1275
06-26-2025 18:32:51.643,0.009272,-0.047092,0.990152,3.15,0.245,-0.77,0.1005,-0.168,-0.126
06-26-2025 18:32:51.683,0.011712,-0.030744,0.973804,1.715,-0.28,-2.03,0.0885,-0.162,-0.1275
06-26-2025 18:32:51.723,0.058316,-0.084668,1.035536,0.56,0.385,-0.595,0.096,-0.1725,-0.12
06-26-2025 18:32:51.763,0.030256,-0.015616,1.001864,0.21,-0.21,0.28,0.0885,-0.1605,-0.12
06-26-2025 18:32:51.803,-0.051972,-0.024888,0.99064,-1.47,-0.28,0.49,0.0885,-0.159,-0.1215
06-26-2025 18:32:51.843,-0.004636,-0.067832,1.0004,-1.68,-0.385,-0.21,0.09,-0.165,-0.1365
06-26-2025 18:32:51.883,0.02928,-0.076372,1.009916,-1.085,-0.385,-1.225,0.0975,-0.1635,-0.123
06-26-2025 18:32:51.923,0.029524,-0.061244,0.988444,-2.135,0.175,-1.575,0.0945,-0.165,-0.1305
06-26-2025 18:32:51.963,0.020008,-0.08662,0.972096,-1.05,-0.245,-0.42,0.1005,-0.1635,-0.12
06-26-2025 18:32:52.003,0.014396,-0.099064,0.993812,-0.455,-0.315,0.035,0.093,-0.171,-0.1275
06-26-2025 18:32:52.043,-0.000976,-0.078324,1.027728,-0.105,0,-2.1,0.096,-0.1665,-0.117
06-26-2025 18:32:52.083,0.01342,-0.073444,1.00284,0.21,0.035,-2.73,0.081,-0.1575,-0.1185
06-26-2025 18:32:52.123,0.019276,-0.083692,0.971608,0.98,0.175,-1.715,0.099,-0.1605,-0.1305
06-26-2025 18:32:52.163,0.030744,-0.088816,1.012356,1.925,-0.245,-1.68,0.093,-0.165,-0.1245
06-26-2025 18:32:52.203,0.0122,-0.088572,0.996008,2.135,0.07,-3.255,0.096,-0.165,-0.126
06-26-2025 18:32:52.243,0.050508,-0.078324,1.013576,1.995,0.665,-3.92,0.096,-0.1635,-0.126
06-26-2025 18:32:52.283,0.0427,-0.098332,0.98698,3.115,-0.385,-2.555,0.09,-0.1635,-0.12
06-26-2025 18:32:52.323,0.00976,-0.061732,0.985028,3.255,0.42,-0.07,0.096,-0.171,-0.1215
06-26-2025 18:32:52.363,0.005368,-0.076616,0.997472,2.765,1.47,0.035,0.0975,-0.1695,-0.1185
06-26-2025 18:32:52.403,0.009028,-0.07808,0.992836,2.73,1.785,-0.56,0.099,-0.174,-0.1335
06-26-2025 18:32:52.443,0.008784,-0.035868,1.037244,2.345,1.47,-0.945,0.087,-0.1665,-0.1245
06-26-2025 18:32:52.483,0.006588,-0.063196,0.991128,2.485,0.98,0.385,0.093,-0.1635,-0.1215
06-26-2025 18:32:52.523,-0.007564,-0.052704,1.020164,2.485,-1.19,-0.175,0.093,-0.165,-0.117
06-26-2025 18:32:52.563,0.00244,-0.06466,0.99796,0.875,0.07,-0.315,0.093,-0.165,-0.1185
06-26-2025 18:32:52.603,0.00976,-0.043432,1.003084,1.645,1.05,-0.91,0.093,-0.1725,-0.129
06-26-2025 18:32:52.643,0.011956,-0.077592,0.978196,1.295,0.175,0.14,0.0945,-0.177,-0.12
06-26-2025 18:32:52.683,0.019032,-0.053924,0.989176,1.68,0.035,0.035,0.0945,-0.1695,-0.114
06-26-2025 18:32:52.723,0.000244,-0.051972,1.042124,1.085,-0.035,-1.12,0.09,-0.18,-0.1245
06-26-2025 18:32:52.763,0.023668,-0.057096,1.014796,0.7,-0.14,-0.735,0.09,-0.18,-0.1245
06-26-2025 18:32:52.803,0.001464,-0.052704,0.970388,1.155,-0.35,0.595,0.096,-0.162,-0.114
06-26-2025 18:32:52.843,-0.001952,-0.069784,0.982588,0.175,0.35,1.925,0.099,-0.1725,-0.1185
06-26-2025 18:32:52.883,0.0305,-0.065636,0.978196,0.105,0.595,-0.455,0.093,-0.165,-0.126
06-26-2025 18:32:52.923,0.050508,-0.048068,1.063596,1.05,-0.21,-1.82,0.0945,-0.165,-0.123
06-26-2025 18:32:52.963,-0.011224,-0.031232,1.05042,2.87,1.12,-0.315,0.096,-0.1635,-0.1185
06-26-2025 18:32:53.003,0.0061,-0.061244,0.917928,0.175,1.225,1.575,0.096,-0.1695,-0.1215
06-26-2025 18:32:53.043,-0.01342,-0.083448,0.994788,0.84,-1.155,-2.625,0.105,-0.1725,-0.1155
06-26-2025 18:32:53.083,-0.030744,-0.032696,1.066524,-0.98,0.525,-1.82,0.102,-0.1695,-0.1185
06-26-2025 18:32:53.123,0.025376,-0.057828,1.015528,0.98,1.435,-1.05,0.0945,-0.165,-0.1245
06-26-2025 18:32:53.163,0.00488,-0.06832,0.973316,1.785,-1.015,-0.35,0.093,-0.1725,-0.129
06-26-2025 18:32:53.203,-0.031964,-0.063196,0.98088,-0.385,-1.54,0.63,0.1005,-0.1785,-0.129
06-26-2025 18:32:53.243,0.011468,-0.05978,1.019188,-1.295,-0.14,0.77,0.0915,-0.171,-0.1365
06-26-2025 18:32:53.283,0.033428,-0.0854,1.035292,-0.07,-1.33,-0.665,0.0885,-0.162,-0.1275
06-26-2025 18:32:53.323,-0.019032,-0.056852,0.982588,1.295,-1.645,-0.945,0.0885,-0.171,-0.1245
06-26-2025 18:32:53.363,0.025132,-0.067588,0.989176,1.225,-0.49,1.12,0.1005,-0.1695,-0.1215
06-26-2025 18:32:53.403,0.042212,-0.058804,1.003328,1.645,-1.505,0.21,0.087,-0.1725,-0.1305
06-26-2025 18:32:53.443,0.02684,-0.068076,0.972584,1.68,-1.855,0.07,0.0975,-0.159,-0.126
06-26-2025 18:32:53.483,0.033672,-0.0366,1.009184,0.84,-0.28,-0.175,0.093,-0.171,-0.1305
06-26-2025 18:32:53.523,0.055388,-0.032696,1.010892,-0.105,0.14,0.525,0.1005,-0.174,-0.129
06-26-2025 18:32:53.563,0.059048,-0.057584,0.993568,0.105,-0.385,1.19,0.0885,-0.1665,-0.126
06-26-2025 18:32:53.603,0.006344,-0.057828,0.971852,0.385,-0.245,0.56,0.09,-0.1755,-0.1245
06-26-2025 18:32:53.643,0.034892,-0.048312,0.989176,-0.315,1.505,0.28,0.084,-0.168,-0.129
06-26-2025 18:32:53.683,0.038552,-0.049044,1.077992,0.525,0.63,-1.4,0.084,-0.1845,-0.132
06-26-2025 18:32:53.723,-0.030256,-0.052704,0.96502,0.84,0.875,-0.35,0.0825,-0.1725,-0.12
06-26-2025 18:32:53.763,0.022204,-0.082716,0.939156,0.84,1.505,0.21,0.093,-0.18,-0.1215
06-26-2025 18:32:53.803,0.013908,-0.020252,1.036268,0.245,0.49,-0.175,0.09,-0.171,-0.123
06-26-2025 18:32:53.843,0.020252,-0.049044,1.046516,-0.665,0.77,-0.315,0.087,-0.174,-0.126
06-26-2025 18:32:53.883,-0.004148,-0.011224,0.970876,-1.12,1.085,-0.49,0.09,-0.177,-0.126
06-26-2025 18:32:53.923,-0.019276,-0.051484,0.970144,-3.745,0.805,1.75,0.0885,-0.1725,-0.126
06-26-2025 18:32:53.963,0.010492,-0.065392,1.017724,-5.145,0.21,2.205,0.0885,-0.1725,-0.1365
06-26-2025 18:32:54.003,0.000732,-0.081496,1.03578,-5.67,0.07,2.765,0.0885,-0.1755,-0.123
06-26-2025 18:32:54.043,-0.006832,-0.117852,0.992104,-3.885,0.07,2.8,0.0885,-0.171,-0.135
06-26-2025 18:32:54.083,-0.028304,-0.027328,0.98088,-3.01,-0.525,2.205,0.0975,-0.1605,-0.1395
06-26-2025 18:32:54.123,0.026596,-0.085888,0.995764,-2.625,-0.28,1.33,0.087,-0.1695,-0.1335
06-26-2025 18:32:54.163,-0.015128,-0.129564,1.015772,-1.295,-0.945,0.945,0.09,-0.162,-0.129
06-26-2025 18:32:54.203,-0.002684,-0.03294,1.02846,-2.205,-1.085,1.085,0.087,-0.162,-0.126
06-26-2025 18:32:54.243,0.034404,-0.08784,0.97478,-1.54,-1.47,0.525,0.084,-0.1575,-0.126
06-26-2025 18:32:54.283,0.041236,-0.060268,1.013576,-3.08,-0.945,1.855,0.09,-0.1485,-0.129
06-26-2025 18:32:54.323,0.0244,-0.077104,0.996252,-2.87,-1.47,-0.245,0.0855,-0.159,-0.135
06-26-2025 18:32:54.363,0.030012,-0.1037,1.01382,-4.305,0,0.35,0.0795,-0.159,-0.135
06-26-2025 18:32:54.403,0.05246,-0.083448,1.002352,-3.22,0.14,-1.505,0.0975,-0.1605,-0.132
06-26-2025 18:32:54.443,0.017324,-0.07515199,0.972828,-5.075,0,0.665,0.093,-0.156,-0.135
06-26-2025 18:32:54.483,0.019032,-0.143716,0.979904,-3.255,0.665,-0.56,0.0825,-0.1635,-0.1275
06-26-2025 18:32:54.523,-0.004148,-0.108336,0.986248,-3.395,0.63,-1.505,0.0915,-0.1545,-0.1275
06-26-2025 18:32:54.563,0.040016,-0.125416,1.026752,-1.855,0.84,-1.4,0.0915,-0.15,-0.1305
06-26-2025 18:32:54.603,-0.027816,-0.104676,0.994544,-1.855,0.105,-0.245,0.0885,-0.1455,-0.1335
06-26-2025 18:32:54.643,-0.001464,-0.09394,1.0309,-1.575,-0.7,-0.35,0.093,-0.1575,-0.1365
06-26-2025 18:32:54.683,0.019276,-0.098088,1.01748,-3.325,-0.77,0.665,0.0825,-0.159,-0.126
06-26-2025 18:32:54.723,0.024156,-0.086132,0.9882,-4.13,-0.245,0.245,0.087,-0.1545,-0.123
06-26-2025 18:32:54.763,0.016592,-0.132248,1.004548,-4.41,-0.21,0.35,0.093,-0.1395,-0.1275
06-26-2025 18:32:54.803,0.039528,-0.105652,0.987956,-5.425,-0.105,0.735,0.0885,-0.15,-0.1335
06-26-2025 18:32:54.843,0.019276,-0.12078,0.987712,-4.725,-0.21,-0.84,0.0975,-0.1365,-0.144
06-26-2025 18:32:54.883,0.011712,-0.153476,0.969412,-5.04,1.05,-1.26,0.0885,-0.1515,-0.1335
06-26-2025 18:32:54.923,-0.000732,-0.142252,1.010892,-1.715,0.63,-2.135,0.096,-0.144,-0.1305
06-26-2025 18:32:54.963,-0.005612,-0.147132,0.972584,-2.275,0.805,-1.225,0.096,-0.1425,-0.132
06-26-2025 18:32:55.003,-0.018544,-0.139568,0.995764,-1.4,0.385,-2.625,0.093,-0.144,-0.132
06-26-2025 18:32:55.043,-0.027084,-0.027816,0.98576,-1.575,-0.14,-2.1,0.0885,-0.144,-0.126
06-26-2025 18:32:55.083,0.070516,-0.186416,0.99674,-1.645,0.07,-1.365,0.102,-0.1365,-0.141
06-26-2025 18:32:55.123,0.04392,-0.15982,1.039196,1.05,-1.505,-2.065,0.084,-0.132,-0.1215
06-26-2025 18:32:55.163,0.025132,-0.107848,0.999668,-1.89,0.14,-0.525,0.09,-0.141,-0.1275
06-26-2025 18:32:55.203,0.046116,-0.131516,0.99796,-0.035,-0.665,-1.68,0.087,-0.1365,-0.1275
06-26-2025 18:32:55.243,-0.016592,-0.155184,1.003328,-3.64,0.035,1.365,0.0885,-0.1455,-0.1305
06-26-2025 18:32:55.283,0.022448,-0.2135,0.9943,-3.01,0.875,1.26,0.099,-0.144,-0.129
06-26-2025 18:32:55.323,0.014884,-0.12078,0.986736,-4.515,0,1.19,0.0885,-0.1335,-0.1275
06-26-2025 18:32:55.363,0.004636,-0.186904,0.997716,-3.045,-0.35,1.68,0.087,-0.1395,-0.1335
06-26-2025 18:32:55.403,-0.018544,-0.173728,1.003328,-1.89,0.07,1.4,0.093,-0.132,-0.132
06-26-2025 18:32:55.443,0.018056,-0.160308,0.996496,-1.925,-0.21,0.7,0.0975,-0.1335,-0.1305
06-26-2025 18:32:55.483,0.000976,-0.174948,0.980392,1.19,-0.56,-0.49,0.093,-0.126,-0.1305
06-26-2025 18:32:55.523,0.001464,-0.14884,0.993324,-0.07,-1.47,0.07,0.0915,-0.123,-0.1365
06-26-2025 18:32:55.563,0.01098,-0.18544,1.004792,2.87,-1.855,-0.525,0.093,-0.1365,-0.129
06-26-2025 18:32:55.603,0.019276,-0.130052,1.018212,-0.175,-1.54,1.4,0.096,-0.1335,-0.1275
06-26-2025 18:32:55.643,0.076616,-0.13176,0.996984,0.91,-1.855,-0.56,0.09,-0.1335,-0.1245
06-26-2025 18:32:55.683,0.08052,-0.131516,1.000644,-0.245,-0.84,1.68,0.093,-0.1335,-0.1335
06-26-2025 18:32:55.723,0.061732,-0.135176,1.00406,-1.19,-0.805,1.295,0.0885,-0.132,-0.132
06-26-2025 18:32:55.763,0.046116,-0.20374,0.99918,-1.295,0.175,0.525,0.09,-0.135,-0.132
06-26-2025 18:32:55.803,0.033672,-0.150792,0.962092,-1.015,1.82,0.56,0.0915,-0.135,-0.132
06-26-2025 18:32:55.843,0.024156,-0.174216,0.985516,-0.525,1.365,0.63,0.081,-0.1335,-0.1305
06-26-2025 18:32:55.883,-0.00366,-0.172508,1.013576,0.385,0.7,0.7,0.084,-0.126,-0.129
06-26-2025 18:32:55.923,-0.00244,-0.185196,0.994056,0.735,1.26,1.33,0.0885,-0.1305,-0.135
06-26-2025 18:32:55.963,0.000976,-0.13908,0.988932,1.155,0.91,1.33,0.087,-0.1275,-0.1335
06-26-2025 18:32:56.003,0.02562,-0.124196,0.958432,-0.455,1.015,1.75,0.0915,-0.141,-0.1275
06-26-2025 18:32:56.043,0.004636,-0.182756,1.018944,-0.175,0.28,0.945,0.0885,-0.132,-0.126
06-26-2025 18:32:56.083,-0.016104,-0.147132,1.019676,0.175,-0.21,-0.07,0.0855,-0.126,-0.135
06-26-2025 18:32:56.123,0.021472,-0.172508,0.98332,1.12,0.21,0.875,0.0855,-0.123,-0.135
06-26-2025 18:32:56.163,-0.012932,-0.163724,0.97112,0.245,0.175,0.035,0.0915,-0.129,-0.132
06-26-2025 18:32:56.203,0.007564,-0.117608,0.976488,-1.995,0.98,-2.205,0.0825,-0.1335,-0.1365
06-26-2025 18:32:56.243,0.051728,-0.149084,1.0187,-1.015,0.7,-2.695,0.0915,-0.135,-0.135
06-26-2025 18:32:56.283,0.02318,-0.178364,1.01626,-0.56,-0.455,-0.35,0.0855,-0.129,-0.1365
06-26-2025 18:32:56.323,-0.002928,-0.1586,0.956968,-0.7,1.12,-1.05,0.0885,-0.129,-0.1335
06-26-2025 18:32:56.363,0.040748,-0.168116,0.9943,-0.7,1.085,-3.64,0.0885,-0.1395,-0.135
06-26-2025 18:32:56.403,0.04636,-0.174704,1.018212,1.61,-0.665,-2.135,0.0915,-0.129,-0.135
06-26-2025 18:32:56.443,0.017568,-0.176168,0.992104,3.64,-0.455,0.105,0.0885,-0.126,-0.126
06-26-2025 18:32:56.483,0.019764,-0.147376,0.999668,1.75,0.21,-0.315,0.087,-0.123,-0.1305
06-26-2025 18:32:56.523,0.076372,-0.1281,1.023336,0.945,-0.385,-2.275,0.084,-0.123,-0.1305
06-26-2025 18:32:56.563,0.043676,-0.12322,1.070184,-1.435,-0.49,1.995,0.096,-0.129,-0.1275
06-26-2025 18:32:56.603,0.027084,-0.111508,0.978196,-4.585,1.33,5.285,0.0975,-0.129,-0.1365
06-26-2025 18:32:56.643,0.027084,-0.114192,0.910364,-10.395,1.75,4.41,0.087,-0.1275,-0.135
06-26-2025 18:32:56.683,-0.005368,-0.182512,1.03578,-12.25,0.49,4.13,0.084,-0.1365,-0.138
06-26-2025 18:32:56.723,-0.04514,-0.171532,1.040416,-13.79,0.945,8.645,0.093,-0.117,-0.1335
06-26-2025 18:32:56.763,-0.000488,-0.309392,0.973072,-11.375,1.365,10.08,0.093,-0.1245,-0.141
06-26-2025 18:32:56.803,-0.050264,-0.29524,0.969656,-6.93,-0.77,6.195,0.0885,-0.114,-0.132
06-26-2025 18:32:56.843,-0.076128,-0.296948,0.993568,-3.115,-1.26,2.31,0.0945,-0.1095,-0.1365
06-26-2025 18:32:56.883,-0.000976,-0.351848,0.987712,3.185,-0.595,3.36,0.0885,-0.105,-0.132
06-26-2025 18:32:56.923,-0.06222,-0.20008,0.986004,7.315,-3.465,0.21,0.0915,-0.108,-0.135
06-26-2025 18:32:56.963,-0.03294,-0.2318,1.019188,8.225,-2.87,-4.725,0.084,-0.111,-0.141
06-26-2025 18:32:57.003,0.022204,-0.151036,0.98332,7.28,-1.68,-5.67,0.087,-0.12,-0.1365
06-26-2025 18:32:57.043,0.03538,-0.181536,0.9821,7.84,-3.08,-4.2,0.0885,-0.123,-0.1395
06-26-2025 18:32:57.083,0.004636,-0.169336,0.99186,6.23,-2.59,-0.91,0.09,-0.1155,-0.1335
06-26-2025 18:32:57.123,0.04636,-0.193248,0.970632,4.375,-1.68,-1.505,0.0915,-0.1215,-0.132
06-26-2025 18:32:57.163,0.103944,-0.150548,0.964288,3.08,-2.03,-0.91,0.084,-0.1185,-0.12
06-26-2025 18:32:57.203,0.086132,-0.156648,1.004304,2.205,-2.135,1.68,0.0885,-0.129,-0.1335
06-26-2025 18:32:57.243,0.06466,-0.157868,1.034072,1.085,-0.105,3.815,0.087,-0.1155,-0.1335
06-26-2025 18:32:57.283,0.060268,-0.132736,0.976,-0.805,0.84,2.52,0.0825,-0.12,-0.1335
06-26-2025 18:32:57.323,0.030256,-0.180072,0.960628,-1.575,0.07,0.35,0.09,-0.1275,-0.1275
06-26-2025 18:32:57.363,0.002684,-0.193248,1.018456,0.21,0.49,-0.595,0.087,-0.111,-0.132
06-26-2025 18:32:57.403,-0.009272,-0.178608,0.99796,0.245,0.21,-2.345,0.0855,-0.123,-0.1305
06-26-2025 18:32:57.443,-0.016348,-0.225456,0.981368,0.105,0,-2.205,0.0915,-0.1185,-0.1365
06-26-2025 18:32:57.483,0.01098,-0.208864,1.019432,0.91,-0.84,-0.595,0.0855,-0.12,-0.1335
06-26-2025 18:32:57.523,-0.0183,-0.194956,0.96746,1.645,-0.735,1.085,0.0885,-0.12,-0.141
06-26-2025 18:32:57.563,0.060756,-0.176412,1.021384,0.735,-0.28,2.03,0.0825,-0.1245,-0.135
06-26-2025 18:32:57.603,0.056608,-0.190076,1.031876,1.155,-2.1,0.315,0.0825,-0.114,-0.1275
06-26-2025 18:32:57.643,0.058072,-0.143716,0.987956,0.56,-1.33,0.21,0.078,-0.1215,-0.129
06-26-2025 18:32:57.683,0.04514,-0.14884,0.977708,-0.315,0,-0.945,0.075,-0.123,-0.1305
06-26-2025 18:32:57.723,0.068564,-0.169824,0.9943,-1.505,0.14,-0.98,0.087,-0.12,-0.1275
06-26-2025 18:32:57.763,0.057584,-0.1708,1.00284,-1.19,-0.245,-1.89,0.078,-0.1155,-0.1215
06-26-2025 18:32:57.803,0.022448,-0.215696,0.986736,-0.84,0.35,-0.245,0.0795,-0.114,-0.1305
06-26-2025 18:32:57.843,0.03782,-0.206912,0.971852,-0.42,0.28,0.98,0.0795,-0.114,-0.1305
06-26-2025 18:32:57.883,0.029524,-0.193248,0.974536,-0.875,-0.665,1.015,0.0825,-0.1125,-0.1275
06-26-2025 18:32:57.923,0.044408,-0.204472,0.998692,0.63,0,0.735,0.0795,-0.114,-0.1245
06-26-2025 18:32:57.963,0.023424,-0.199348,1.010648,2.065,1.015,0.035,0.0795,-0.117,-0.1245
06-26-2025 18:32:58.003,0.033184,-0.171532,0.999912,2.485,0.735,-1.4,0.0855,-0.1155,-0.1305
06-26-2025 18:32:58.043,0.037576,-0.19642,0.937936,2.555,0.805,-1.89,0.081,-0.1125,-0.132
06-26-2025 18:32:58.083,0.023668,-0.179584,1.022848,2.625,0.105,-1.54,0.081,-0.1125,-0.132
06-26-2025 18:32:58.123,-0.02196,-0.17446,1.022604,1.89,-0.665,-0.56,0.0795,-0.1155,-0.1245
06-26-2025 18:32:58.163,0.033428,-0.160796,0.974292,0.56,-0.105,0.7,0.081,-0.117,-0.129
06-26-2025 18:32:58.203,0.02928,-0.189344,0.967948,0.175,-1.26,0.875,0.0795,-0.1125,-0.1305
06-26-2025 18:32:58.243,0.02318,-0.160064,0.989664,-1.4,-1.785,1.19,0.078,-0.1155,-0.135
06-26-2025 18:32:58.283,0.080276,-0.237656,1.010648,-0.21,-0.595,0.21,0.081,-0.111,-0.129
06-26-2025 18:32:58.323,0.085888,-0.188124,0.978684,2.135,0.28,-0.63,0.081,-0.1215,-0.1215
06-26-2025 18:32:58.363,0.049776,-0.162016,0.976244,2.03,0.14,-0.665,0.0735,-0.123,-0.1335
06-26-2025 18:32:58.403,0.081984,-0.169336,1.001376,0.98,1.05,0.665,0.0885,-0.1185,-0.132
06-26-2025 18:32:58.443,0.059292,-0.15128,1.011136,-0.42,0.77,0.105,0.069,-0.1245,-0.132
06-26-2025 18:32:58.483,0.028792,-0.182756,0.990396,-0.42,1.085,0.28,0.081,-0.1215,-0.138
06-26-2025 18:32:58.523,0.044164,-0.155428,0.958188,-1.12,1.61,0.28,0.0765,-0.123,-0.1245
06-26-2025 18:32:58.563,0.019764,-0.19764,0.99064,-1.19,1.26,-0.595,0.0825,-0.1215,-0.1245
06-26-2025 18:32:58.603,0.007808,-0.196664,0.99552,-0.91,1.365,-0.315,0.087,-0.1215,-0.129
06-26-2025 18:32:58.643,0.008784,-0.195932,1.009672,-0.42,0.875,-0.105,0.0915,-0.1155,-0.135
06-26-2025 18:32:58.683,-0.000488,-0.19886,0.993568,-0.175,-0.035,0.21,0.081,-0.111,-0.1335
06-26-2025 18:32:58.723,0.025132,-0.190076,1.018944,0.385,-0.175,0.035,0.084,-0.117,-0.132
06-26-2025 18:32:58.763,0.01586,-0.225212,1.007964,1.505,0.105,0.805,0.0885,-0.1215,-0.1305
06-26-2025 18:32:58.803,0.00366,-0.197884,0.937448,1.89,-0.735,0.035,0.087,-0.111,-0.1275
06-26-2025 18:32:58.843,0.019276,-0.19642,1.0248,2.205,-0.91,-0.595,0.0825,-0.123,-0.129
06-26-2025 18:32:58.883,0.04392,-0.170312,1.02602,2.87,-0.385,-0.14,0.0855,-0.1155,-0.126
06-26-2025 18:32:58.923,0.04758,-0.147132,0.95648,1.82,-0.735,-0.42,0.0795,-0.12,-0.135
06-26-2025 18:32:58.963,0.06344,-0.165676,0.970632,0.14,-0.455,0.07,0.084,-0.114,-0.129
06-26-2025 18:32:59.003,0.061488,-0.16226,1.042612,-2.52,-0.245,0.42,0.0825,-0.1185,-0.132
06-26-2025 18:32:59.043,0.040504,-0.220332,0.98454,-1.085,0.385,-0.7,0.084,-0.111,-0.129
06-26-2025 18:32:59.083,0.04392,-0.186416,0.945012,0.07,1.12,-0.805,0.0885,-0.1185,-0.126
06-26-2025 18:32:59.123,0.034648,-0.205204,1.001864,0.245,0.665,-0.175,0.081,-0.111,-0.129
06-26-2025 18:32:59.163,0.021472,-0.197884,1.009428,0.91,0.35,-0.07,0.084,-0.111,-0.1275
06-26-2025 18:32:59.203,0.0122,-0.1891,0.984784,0.455,1.085,1.015,0.087,-0.1215,-0.1245
06-26-2025 18:32:59.243,0.024644,-0.191784,0.98576,1.19,0.805,0.7,0.0855,-0.1155,-0.1335
06-26-2025 18:32:59.283,0.020008,-0.185196,1.002352,1.26,0.035,-0.105,0.078,-0.1185,-0.129
06-26-2025 18:32:59.323,0.018056,-0.18422,1.038952,1.54,0.525,-0.385,0.0825,-0.1275,-0.1245
06-26-2025 18:32:59.363,0.015372,-0.172752,0.923784,-1.365,0.91,1.085,0.0855,-0.1065,-0.1305
06-26-2025 18:32:59.403,0.028548,-0.217404,0.978684,-0.805,-0.245,-0.595,0.087,-0.117,-0.1335
06-26-2025 18:32:59.443,0.001464,-0.184708,1.041392,-0.665,-0.42,-0.385,0.0855,-0.111,-0.1365
06-26-2025 18:32:59.483,0.026352,-0.195688,1.00406,0.945,0.63,0.49,0.084,-0.1185,-0.123
06-26-2025 18:32:59.523,0.032208,-0.2318,0.930372,0.105,-0.595,-0.035,0.084,-0.1185,-0.1305
06-26-2025 18:32:59.563,0.032208,-0.214232,1.01504,1.925,-0.77,-1.47,0.0765,-0.117,-0.1335
06-26-2025 18:32:59.603,0.061732,-0.183244,1.02114,3.01,0.595,-0.07,0.081,-0.1185,-0.123
06-26-2025 18:32:59.643,0.039284,-0.155184,0.981124,2.975,0.525,0.035,0.0855,-0.12,-0.123
06-26-2025 18:32:59.683,0.0183,-0.15372,0.97966,0.28,-0.07,0.175,0.0855,-0.123,-0.123
06-26-2025 18:32:59.723,0.03904,-0.155916,1.022604,-1.19,0.175,1.015,0.0825,-0.1185,-0.123
06-26-2025 18:32:59.763,0.031232,-0.202032,0.987468,0.105,0.245,0.035,0.0855,-0.117,-0.135
06-26-2025 18:32:59.803,0.0854,-0.255468,0.953552,0.21,0.63,-0.28,0.084,-0.132,-0.1305
06-26-2025 18:32:59.843,0.008052,-0.226188,0.98698,-1.12,0.595,0.175,0.0855,-0.1245,-0.1365
06-26-2025 18:32:59.883,0.017324,-0.207156,0.981124,-0.175,0.42,-0.455,0.0795,-0.123,-0.1275
06-26-2025 18:32:59.923,-0.00732,-0.191052,1.004304,1.715,0.175,-0.98,0.09,-0.1215,-0.132
06-26-2025 18:32:59.963,0.018544,-0.178364,0.992592,2.1,0.245,0.42,0.0795,-0.1185,-0.129
06-26-2025 18:33:00.003,0.03294,-0.18422,0.993324,-0.105,-1.33,0.035,0.0855,-0.1215,-0.126
06-26-2025 18:33:00.043,0.044652,-0.2074,1.029192,0.07,-0.63,-0.455,0.087,-0.123,-0.1335
06-26-2025 18:33:00.083,0.055388,-0.199348,0.960384,2.345,0.56,-0.735,0.0765,-0.1275,-0.132
06-26-2025 18:33:00.123,0.053436,-0.144692,0.95648,1.05,0.245,-0.455,0.0825,-0.117,-0.1365
06-26-2025 18:33:00.163,0.053192,-0.188612,1.019676,0.98,-0.035,-0.98,0.0855,-0.117,-0.1305
06-26-2025 18:33:00.203,0.007564,-0.145668,1.037732,0.245,0.945,0.91,0.0885,-0.1215,-0.1305
06-26-2025 18:33:00.243,0.02074,-0.19398,0.9516,-0.105,0.525,1.365,0.081,-0.114,-0.1275
06-26-2025 18:33:00.283,-0.006344,-0.197396,1.007964,-0.7,-0.28,0.56,0.081,-0.1065,-0.129
06-26-2025 18:33:00.323,0.05246,-0.192028,1.012112,0.455,0.28,-0.385,0.084,-0.1215,-0.129
06-26-2025 18:33:00.363,0.054168,-0.165676,0.985272,1.33,0.595,-0.245,0.087,-0.114,-0.135
06-26-2025 18:33:00.403,-0.002928,-0.176656,0.964288,-0.035,0.35,0.07,0.0885,-0.117,-0.132
06-26-2025 18:33:00.443,0.026352,-0.206424,1.02602,-0.42,0.105,-0.245,0.0885,-0.1185,-0.1335
06-26-2025 18:33:00.483,-0.000488,-0.22814,0.986736,1.82,0.21,-0.105,0.093,-0.1215,-0.135
06-26-2025 18:33:00.523,0.010004,-0.17934,0.968436,2.45,-0.105,-0.28,0.084,-0.123,-0.132
06-26-2025 18:33:00.563,0.026108,-0.151524,0.995764,1.575,-0.735,-0.49,0.0825,-0.117,-0.126
06-26-2025 18:33:00.603,0.058804,-0.164456,1.021872,0.875,-0.49,-0.245,0.078,-0.1185,-0.132
06-26-2025 18:33:00.643,0.07198,-0.176412,0.979904,-0.315,-0.035,0.28,0.0825,-0.1215,-0.126
06-26-2025 18:33:00.683,0.072468,-0.205692,0.929396,-0.875,0.91,0.035,0.0735,-0.1155,-0.138
06-26-2025 18:33:00.723,0.033184,-0.189588,1.05408,0.455,0.525,0.07,0.084,-0.12,-0.1335
06-26-2025 18:33:00.763,-0.005612,-0.183488,0.990152,1.435,0.175,0.175,0.0735,-0.1185,-0.1335
06-26-2025 18:33:00.803,0.030256,-0.191296,0.942572,0.56,0.385,1.225,0.0825,-0.129,-0.1335
06-26-2025 18:33:00.843,0.033428,-0.220576,1.0187,0.315,-0.385,0.175,0.0795,-0.117,-0.1305
06-26-2025 18:33:00.883,-0.00244,-0.172996,1.009184,0.14,-0.14,0.035,0.078,-0.1095,-0.1395
06-26-2025 18:33:00.923,0.022204,-0.175192,0.957212,0.7,0.245,-0.35,0.0765,-0.114,-0.138
06-26-2025 18:33:00.963,0.066368,-0.191052,1.004304,0.49,-0.805,-0.91,0.084,-0.1125,-0.1245
06-26-2025 18:33:01.003,0.051484,-0.181048,1.014552,0.665,0,0.42,0.0765,-0.1275,-0.129
06-26-2025 18:33:01.043,0.033672,-0.183976,0.990152,-1.015,1.365,2.135,0.0735,-0.12,-0.1335
06-26-2025 18:33:01.083,-0.003904,-0.195932,0.978928,-0.42,0.105,0.175,0.084,-0.117,-0.1245
06-26-2025 18:33:01.123,-0.020252,-0.232288,0.9821,0.805,-0.595,-0.105,0.084,-0.123,-0.132
06-26-2025 18:33:01.163,0.041968,-0.174948,0.993812,0.595,-0.07,-0.035,0.0825,-0.1125,-0.1305
06-26-2025 18:33:01.203,0.047824,-0.197396,0.989664,0.315,-0.91,-1.995,0.0825,-0.12,-0.1365
06-26-2025 18:33:01.243,0.03782,-0.219844,0.970144,1.575,-0.315,-1.505,0.084,-0.114,-0.132
06-26-2025 18:33:01.283,0.033184,-0.186904,0.983076,1.26,0.35,0.07,0.081,-0.114,-0.123
06-26-2025 18:33:01.323,0.04392,-0.204716,1.01016,1.82,-0.245,-0.455,0.087,-0.123,-0.129
06-26-2025 18:33:01.363,0.047092,-0.157624,0.995276,1.155,-0.105,0.455,0.084,-0.126,-0.135
06-26-2025 18:33:01.403,0.105652,-0.17446,0.938912,-0.665,0.385,2.17,0.0915,-0.117,-0.126
06-26-2025 18:33:01.443,0.076372,-0.205936,0.998692,-1.715,0.21,0.665,0.078,-0.1215,-0.132
06-26-2025 18:33:01.483,0.023668,-0.235216,0.997472,0.77,1.085,-1.785,0.087,-0.12,-0.123
06-26-2025 18:33:01.523,0.039284,-0.176412,0.944524,1.89,1.68,-1.68,0.081,-0.1155,-0.132
06-26-2025 18:33:01.563,0.065636,-0.176656,0.975756,3.01,1.785,-1.085,0.081,-0.12,-0.1365
06-26-2025 18:33:01.603,-0.00976,-0.168848,1.065548,0.595,0.805,1.855,0.087,-0.12,-0.1335
06-26-2025 18:33:01.643,0.015128,-0.155184,0.952576,-1.575,0.56,2.52,0.081,-0.12,-0.132
06-26-2025 18:33:01.683,-0.005124,-0.223016,0.989176,-1.155,-0.245,0.98,0.093,-0.117,-0.1305
06-26-2025 18:33:01.723,0.000732,-0.148596,1.036756,0.91,-0.665,-0.49,0.084,-0.123,-0.1425
06-26-2025 18:33:01.763,-0.000244,-0.224968,0.9638,-0.245,-0.07,-0.98,0.084,-0.1185,-0.1275
06-26-2025 18:33:01.803,0.047336,-0.2074,0.95038,0.35,-0.175,-2.135,0.09,-0.1245,-0.132
06-26-2025 18:33:01.843,0.029768,-0.18666,1.034316,1.855,-1.085,-2.275,0.093,-0.1095,-0.1365
06-26-2025 18:33:01.883,0.0244,-0.20618,1.021872,3.395,-0.14,0.98,0.0825,-0.1185,-0.132
06-26-2025 18:33:01.923,0.042212,-0.154452,0.954528,0.595,-0.91,1.015,0.0885,-0.114,-0.1215
06-26-2025 18:33:01.963,0.058804,-0.198372,0.994056,-1.435,-1.26,1.155,0.087,-0.12,-0.132
06-26-2025 18:33:02.003,0.036112,-0.20618,1.03578,0.98,-0.385,-0.21,0.084,-0.1185,-0.123
06-26-2025 18:33:02.043,0.059048,-0.152256,0.965264,1.295,0.63,-1.015,0.0735,-0.1155,-0.1305
06-26-2025 18:33:02.083,0.006588,-0.034648,0.98454,1.19,0.7,-1.75,0.0825,-0.117,-0.129
06-26-2025 18:33:02.123,0.031964,-0.181536,1.000644,-1.33,0.455,1.085,0.0735,-0.123,-0.1305
06-26-2025 18:33:02.163,0.00976,-0.19154,1.025288,-1.4,0.105,0.91,0.075,-0.1215,-0.135
06-26-2025 18:33:02.203,-0.000488,-0.198616,1.001376,0.84,0.28,-0.175,0.0855,-0.1155,-0.135
06-26-2025 18:33:02.243,0.022936,-0.19154,0.935984,0.28,0.875,0.735,0.0765,-0.1185,-0.1275
06-26-2025 18:33:02.283,0.020252,-0.225944,0.980148,0.385,-0.175,-0.945,0.0855,-0.12,-0.1305
06-26-2025 18:33:02.323,0.009028,-0.194956,1.028216,2.31,0.035,-2.485,0.0735,-0.1185,-0.1305
06-26-2025 18:33:02.363,0.035868,-0.185196,1.000156,3.535,1.085,-0.35,0.0855,-0.1185,-0.1275
06-26-2025 18:33:02.403,-0.002196,-0.16592,0.946232,1.47,-0.735,0.665,0.081,-0.1185,-0.135
06-26-2025 18:33:02.443,0.020252,-0.16592,1.006256,-1.435,-1.05,1.155,0.084,-0.1215,-0.135
06-26-2025 18:33:02.483,0.046604,-0.196664,1.00894,-0.63,0.14,0.735,0.0855,-0.114,-0.129
06-26-2025 18:33:02.523,0.041724,-0.189344,0.962824,0.315,0,-0.455,0.09,-0.1155,-0.1245
06-26-2025 18:33:02.563,0.0427,-0.209352,0.95892,0.42,0.035,-1.155,0.0885,-0.12,-0.135
06-26-2025 18:33:02.603,0.028792,-0.170068,0.994056,-1.715,0.63,0.315,0.081,-0.1155,-0.1365
06-26-2025 18:33:02.643,0.037332,-0.231312,1.003328,0.35,0.07,-0.385,0.084,-0.1125,-0.1365
06-26-2025 18:33:02.683,-0.0061,-0.194468,0.980148,2.275,0.21,0.14,0.084,-0.126,-0.1245
06-26-2025 18:33:02.723,0.022448,-0.165432,1.003328,0.385,0,0.63,0.084,-0.1275,-0.129
06-26-2025 18:33:02.763,0.043432,-0.200812,0.992836,1.26,-0.735,-0.735,0.081,-0.117,-0.1275
06-26-2025 18:33:02.803,0.027572,-0.168116,0.987712,0.735,-0.035,-0.42,0.0825,-0.123,-0.1305
06-26-2025 18:33:02.843,0.054168,-0.19398,1.00284,1.225,0.42,-0.525,0.084,-0.1125,-0.1425
06-26-2025 18:33:02.883,0.050752,-0.181292,0.976244,0.91,-0.07,-0.91,0.0795,-0.12,-0.1275
06-26-2025 18:33:02.923,0.03904,-0.188124,0.991616,1.085,0.735,0.525,0.084,-0.126,-0.138
06-26-2025 18:33:02.963,0.03294,-0.181048,0.997472,1.365,0.49,0.77,0.0795,-0.1185,-0.135
06-26-2025 18:33:03.003,0.00976,-0.172508,0.992836,0.56,0.14,0.805,0.0825,-0.12,-0.132
06-26-2025 18:33:03.043,0.007564,-0.19154,0.990152,0.42,0.49,0.595,0.0885,-0.117,-0.123
06-26-2025 18:33:03.083,0.02074,-0.163968,0.998692,0.175,0.035,-0.21,0.0825,-0.123,-0.1245
06-26-2025 18:33:03.123,0.032696,-0.203008,0.975024,0.84,-0.245,-1.085,0.084,-0.12,-0.132
06-26-2025 18:33:03.163,0.031232,-0.178364,1.003328,0.035,0.28,0.315,0.084,-0.12,-0.132
06-26-2025 18:33:03.203,0.029524,-0.199836,0.983808,-0.7,-0.035,0.63,0.0885,-0.1185,-0.132
06-26-2025 18:33:03.243,0.005124,-0.199592,0.980148,0.035,-0.14,0.385,0.0885,-0.1215,-0.1305
06-26-2025 18:33:03.283,0.008296,-0.193736,0.997472,1.645,-0.245,-0.175,0.0825,-0.123,-0.135
06-26-2025 18:33:03.323,0.032452,-0.171044,1.002596,0.77,-0.455,-0.28,0.081,-0.117,-0.1335
06-26-2025 18:33:03.363,0.03538,-0.194468,0.983076,1.155,-0.35,-0.84,0.084,-0.1215,-0.132
06-26-2025 18:33:03.403,0.07515199,-0.18544,0.98332,0.385,-0.28,0,0.084,-0.1215,-0.132
06-26-2025 18:33:03.443,0.052216,-0.204716,1.00162,0.35,-0.245,0.14,0.084,-0.1275,-0.132
06-26-2025 18:33:03.483,0.05246,-0.199348,0.98698,0.77,0.35,0.105,0.0825,-0.111,-0.1275
06-26-2025 18:33:03.523,0.03294,-0.188124,0.989176,1.225,0.84,-0.21,0.081,-0.123,-0.1335
06-26-2025 18:33:03.563,0.022692,-0.176656,0.99064,1.295,0.84,-0.105,0.081,-0.1095,-0.1305
06-26-2025 18:33:03.603,0.0244,-0.172996,1.014552,0.28,0.595,0.035,0.075,-0.1215,-0.1215
06-26-2025 18:33:03.643,0.011956,-0.17324,1.008696,-0.42,0.35,0.21,0.0825,-0.114,-0.1305
06-26-2025 18:33:03.683,-0.005368,-0.200568,0.970388,-0.665,0.105,0,0.084,-0.114,-0.1245
06-26-2025 18:33:03.723,0.019032,-0.175192,0.960384,-0.28,-0.595,-0.77,0.0735,-0.1245,-0.1305
06-26-2025 18:33:03.763,0.058316,-0.1769,1.038464,0.805,-0.315,-0.735,0.084,-0.117,-0.1305
06-26-2025 18:33:03.803,0.048312,-0.18422,0.958432,0.665,0.98,0.735,0.084,-0.1215,-0.1245
06-26-2025 18:33:03.843,0.045384,-0.17934,0.963312,-0.56,0.525,1.015,0.0795,-0.1155,-0.1335
06-26-2025 18:33:03.883,0.019032,-0.192516,1.023824,-0.63,-0.07,0.77,0.081,-0.126,-0.1335
06-26-2025 18:33:03.923,0.003904,-0.191296,0.996252,0.84,0.735,0.035,0.081,-0.1185,-0.1335
06-26-2025 18:33:03.963,0.011224,-0.178364,0.967704,1.015,0.35,-1.12,0.093,-0.1155,-0.123
06-26-2025 18:33:04.003,0.027328,-0.188124,0.9882,0.49,-0.77,-1.19,0.078,-0.1215,-0.1365
06-26-2025 18:33:04.043,0.027084,-0.19764,1.020164,-0.14,-0.665,-0.56,0.09,-0.123,-0.1245
06-26-2025 18:33:04.083,0.050264,-0.20862,0.988932,1.505,-0.21,-0.98,0.0855,-0.12,-0.144
06-26-2025 18:33:04.123,0.051484,-0.176168,0.957944,0.98,0.315,0.175,0.084,-0.1245,-0.1215
06-26-2025 18:33:04.163,0.04026,-0.189344,1.023092,0.91,-0.245,0.14,0.0915,-0.1125,-0.126
06-26-2025 18:33:04.203,0.019764,-0.17934,1.015772,1.225,0.315,0.175,0.096,-0.1185,-0.1305
06-26-2025 18:33:04.243,0.037088,-0.171288,0.95282,0.455,0.875,0.63,0.09,-0.117,-0.1275
06-26-2025 18:33:04.283,0.049044,-0.170556,1.026508,-0.175,0.105,0,0.0855,-0.1185,-0.126
06-26-2025 18:33:04.323,-0.00122,-0.19886,1.024556,-0.14,-0.035,-0.385,0.084,-0.114,-0.135
06-26-2025 18:33:04.363,0.021716,-0.213012,0.982588,0.42,0.525,-0.14,0.0855,-0.1155,-0.129
06-26-2025 18:33:04.403,0.064904,-0.170312,0.95038,0.63,-0.385,-0.35,0.084,-0.1155,-0.132
06-26-2025 18:33:04.443,0.064904,-0.21594,1.011868,0.245,-0.315,0.42,0.081,-0.1155,-0.135
06-26-2025 18:33:04.483,0.032452,-0.19276,0.971852,0.315,0.805,1.015,0.084,-0.1155,-0.138
06-26-2025 18:33:04.523,-0.015616,-0.162748,1.012844,0.805,0.91,0.175,0.0885,-0.1215,-0.129
06-26-2025 18:33:04.563,0.005856,-0.19764,0.993568,0.98,0.35,0.28,0.084,-0.117,-0.1215
06-26-2025 18:33:04.603,0.023912,-0.179828,1.026752,1.33,-0.105,-0.595,0.0855,-0.117,-0.1275
06-26-2025 18:33:04.643,0.03172,-0.180072,0.98576,0.875,-0.07,-0.385,0.081,-0.1215,-0.1275
06-26-2025 18:33:04.683,0.052948,-0.187148,0.966484,-0.175,-0.21,0.105,0.09,-0.12,-0.1245
06-26-2025 18:33:04.723,0.052704,-0.2074,0.995032,-0.14,-0.315,-0.28,0.081,-0.117,-0.135
06-26-2025 18:33:04.763,0.038308,-0.209596,0.99308,1.225,0.56,-0.56,0.0675,-0.114,-0.129
06-26-2025 18:33:04.803,0.02074,-0.192028,0.99064,1.82,0.91,-0.315,0.0795,-0.117,-0.135
06-26-2025 18:33:04.843,0.016348,-0.170556,0.99064,1.785,-0.035,0.07,0.084,-0.114,-0.132
06-26-2025 18:33:04.883,0.013664,-0.167872,1.001132,1.295,-0.28,0.84,0.0855,-0.114,-0.129
06-26-2025 18:33:04.923,-0.016592,-0.09076799,1.038708,-0.07,-0.315,1.19,0.0915,-0.117,-0.1245
06-26-2025 18:33:04.963,0.021716,-0.188856,0.9882,-0.385,-0.315,0.21,0.0825,-0.1215,-0.1275
06-26-2025 18:33:05.003,0.04026,-0.182024,0.988444,-0.245,-0.21,-0.735,0.0795,-0.126,-0.1305
06-26-2025 18:33:05.043,0.05734,-0.19398,0.971852,0.455,0.175,-1.225,0.081,-0.1155,-0.132
06-26-2025 18:33:05.083,0.060512,-0.188856,0.967216,0.21,0.49,-0.35,0.081,-0.1125,-0.135
06-26-2025 18:33:05.123,0.028792,-0.187392,0.992104,-0.945,0.735,1.015,0.09,-0.117,-0.1305
06-26-2025 18:33:05.163,0.017568,-0.23546,1.022848,-0.315,0.805,0.945,0.0795,-0.123,-0.132
06-26-2025 18:33:05.203,-0.020008,-0.201788,0.93208,0.98,0.875,0.49,0.081,-0.1215,-0.1335
06-26-2025 18:33:05.243,-0.00854,-0.194956,1.0065,1.365,0.385,-0.14,0.087,-0.1215,-0.129
06-26-2025 18:33:05.283,0.018788,-0.173484,1.012112,1.785,-0.14,-0.84,0.081,-0.1155,-0.1275
06-26-2025 18:33:05.323,0.041724,-0.166652,0.985028,0.7,-0.35,-0.245,0.084,-0.12,-0.132
06-26-2025 18:33:05.363,0.061488,-0.184464,1.004792,-0.28,-0.63,0.14,0.081,-0.1215,-0.126
06-26-2025 18:33:05.403,0.049044,-0.200324,0.982344,-0.49,-0.49,-0.175,0.0795,-0.1155,-0.126
06-26-2025 18:33:05.443,0.040016,-0.195932,0.981124,-0.07,0.315,-0.49,0.0765,-0.1125,-0.1335
06-26-2025 18:33:05.483,0.026352,-0.194224,1.001864,1.225,0.595,-1.015,0.0825,-0.12,-0.135
06-26-2025 18:33:05.523,0.009028,-0.182756,0.997228,1.925,0.35,-0.665,0.087,-0.1125,-0.132
06-26-2025 18:33:05.563,0.029036,-0.176656,0.994056,1.225,-0.105,0.7,0.0825,-0.117,-0.1215
06-26-2025 18:33:05.603,0.043188,-0.196908,0.992104,0.455,-0.49,1.015,0.0855,-0.114,-0.1395
06-26-2025 18:33:05.643,0.034404,-0.163968,0.987956,-0.42,-0.14,0.77,0.078,-0.1185,-0.132
06-26-2025 18:33:05.683,0.0366,-0.185684,0.999912,-0.42,-0.035,-0.315,0.075,-0.1185,-0.1245
06-26-2025 18:33:05.723,0.020496,-0.194468,0.97722,-0.105,0,-1.19,0.0945,-0.1215,-0.132
06-26-2025 18:33:05.763,0.06344,-0.198372,0.981368,0.07,0.455,-0.875,0.0825,-0.1155,-0.126
06-26-2025 18:33:05.803,0.052216,-0.194712,0.990884,0.14,0.35,0.245,0.081,-0.111,-0.1365
06-26-2025 18:33:05.843,-0.006344,-0.138348,0.978196,-0.875,0.805,1.715,0.087,-0.1185,-0.1335
06-26-2025 18:33:05.883,0.019032,-0.203984,0.997228,-0.035,0.77,0.91,0.084,-0.117,-0.135
06-26-2025 18:33:05.923,0.01098,-0.190076,0.962824,1.26,0.525,-0.035,0.081,-0.111,-0.129
06-26-2025 18:33:05.963,0.019032,-0.193492,0.99552,1.82,0.735,-0.28,0.081,-0.12,-0.135
06-26-2025 18:33:06.003,0.022204,-0.174216,1.028948,1.015,0.28,-0.49,0.081,-0.1245,-0.1305
06-26-2025 18:33:06.043,0.030012,-0.192028,0.971608,0.42,-0.105,-0.175,0.0825,-0.117,-0.1365
06-26-2025 18:33:06.083,0.035868,-0.185928,0.980148,-0.385,-0.28,0.385,0.0735,-0.1185,-0.129
06-26-2025 18:33:06.123,0.031964,-0.201788,1.005524,0.14,-0.245,-0.42,0.084,-0.129,-0.1215
06-26-2025 18:33:06.163,0.032208,-0.205692,0.979416,0.735,0.35,-0.42,0.0795,-0.1245,-0.1275
06-26-2025 18:33:06.203,0.032208,-0.186904,0.98698,1.225,0.42,-0.49,0.0795,-0.12,-0.1275
06-26-2025 18:33:06.243,0.021716,-0.186172,1.003816,1.155,-0.14,-0.14,0.078,-0.117,-0.132
06-26-2025 18:33:06.283,0.024156,-0.171044,0.999912,0.805,0.105,0.525,0.0795,-0.12,-0.126
06-26-2025 18:33:06.323,0.04148,-0.184952,0.977708,0.525,0.14,0.49,0.0825,-0.1155,-0.132
06-26-2025 18:33:06.363,0.032208,-0.182512,0.990884,0.35,-0.21,0.07,0.0765,-0.117,-0.1335
06-26-2025 18:33:06.403,0.031476,-0.224236,1.003328,0.315,-0.07,-0.175,0.0855,-0.12,-0.12
06-26-2025 18:33:06.443,0.030012,-0.205204,0.968192,0.455,0.315,-0.35,0.0855,-0.1215,-0.132
06-26-2025 18:33:06.483,0.042212,-0.18544,0.985516,-0.14,-0.07,-0.14,0.0735,-0.1185,-0.1245
06-26-2025 18:33:06.523,0.009516,-0.212524,0.990884,0.385,0.105,0.14,0.084,-0.123,-0.135
06-26-2025 18:33:06.563,0.047336,-0.210084,0.958676,0.875,0.28,0.105,0.0795,-0.114,-0.135
06-26-2025 18:33:06.603,0.05368,-0.159332,1.01748,0.385,-0.21,0.14,0.087,-0.1125,-0.123
06-26-2025 18:33:06.643,0.00244,-0.19276,1.008452,0.035,0.49,0.63,0.093,-0.1185,-0.138
06-26-2025 18:33:06.683,0.013176,-0.200324,0.946476,0.035,0.49,-0.245,0.0915,-0.1035,-0.132
06-26-2025 18:33:06.723,0.012688,-0.197152,0.949648,1.26,0.14,-1.085,0.0795,-0.114,-0.132
06-26-2025 18:33:06.763,0.016348,-0.186416,1.046516,1.19,-0.14,-0.385,0.0795,-0.1125,-0.141
06-26-2025 18:33:06.803,0.059292,-0.168116,0.983808,1.19,-0.105,-0.56,0.0765,-0.117,-0.1305
06-26-2025 18:33:06.843,0.039772,-0.178364,0.955016,-0.175,-0.07,0.49,0.0915,-0.111,-0.135
06-26-2025 18:33:06.883,0.032696,-0.192516,0.988688,-0.105,-0.49,-0.035,0.084,-0.111,-0.1305
06-26-2025 18:33:06.923,0.017812,-0.212768,0.998204,0.385,0.035,-0.63,0.081,-0.1095,-0.135
06-26-2025 18:33:06.963,0.023668,-0.194224,0.99186,0.91,0.525,-1.085,0.0825,-0.1155,-0.129
06-26-2025 18:33:07.003,0.01708,-0.186416,0.987712,1.015,-0.525,-0.455,0.0885,-0.1125,-0.1365
06-26-2025 18:33:07.043,0.026108,-0.17324,1.017236,0,-0.945,0.455,0.0915,-0.117,-0.1335
06-26-2025 18:33:07.083,0.02562,-0.207644,1.003572,-0.665,-0.91,0.385,0.0885,-0.1095,-0.138
06-26-2025 18:33:07.123,0.056608,-0.182024,0.972096,-0.665,-0.49,-0.14,0.0855,-0.1155,-0.129
06-26-2025 18:33:07.163,0.051484,-0.210572,0.982588,0,-0.315,-0.735,0.093,-0.105,-0.129
06-26-2025 18:33:07.203,0.036112,-0.20252,0.996496,0.7,0,-1.33,0.0855,-0.108,-0.138
06-26-2025 18:33:07.243,0.035136,-0.19032,0.986492,0.91,0.49,-0.665,0.09,-0.108,-0.126
06-26-2025 18:33:07.283,0.045384,-0.204472,0.989176,0.91,0.315,0.21,0.0795,-0.114,-0.129
06-26-2025 18:33:07.323,0.028304,-0.182756,0.9943,0.91,0.315,0.735,0.1005,-0.1035,-0.135
06-26-2025 18:33:07.363,0.034892,-0.185928,0.983808,0.595,0.49,1.015,0.09,-0.1185,-0.1275
06-26-2025 18:33:07.403,0.023912,-0.1891,0.98088,0.525,0.21,0.56,0.0855,-0.108,-0.126
06-26-2025 18:33:07.443,0.017812,-0.186416,0.98942,0.455,-0.035,-0.245,0.096,-0.1095,-0.1305
06-26-2025 18:33:07.483,0.016348,-0.190076,1.004548,0.49,-0.07,-1.12,0.087,-0.1155,-0.135
06-26-2025 18:33:07.523,0.02318,-0.189344,0.99064,-0.455,-0.42,-0.49,0.0825,-0.114,-0.129
06-26-2025 18:33:07.563,0.033672,-0.21594,0.96746,-1.26,-0.7,-0.175,0.0885,-0.111,-0.1365
06-26-2025 18:33:07.603,0.023912,-0.231312,0.987224,0.805,-0.525,-1.4,0.087,-0.117,-0.1395
06-26-2025 18:33:07.643,0.019032,-0.18788,0.979904,1.82,0.175,-0.735,0.0915,-0.1155,-0.129
06-26-2025 18:33:07.683,0.099064,-0.190076,1.086044,1.505,-0.63,-0.14,0.0855,-0.1125,-0.129
06-26-2025 18:33:07.723,0.038552,-0.183732,0.995276,0.945,-1.26,-0.14,0.09,-0.1185,-0.1275
06-26-2025 18:33:07.763,0.083692,-0.104676,1.051152,0.945,-0.56,0.455,0.0855,-0.117,-0.129
06-26-2025 18:33:07.803,0.038552,-0.188124,0.990884,1.225,-0.665,-0.385,0.084,-0.1185,-0.1305
06-26-2025 18:33:07.843,0.021472,-0.197884,1.011136,1.47,-0.77,-1.12,0.0915,-0.108,-0.1245
06-26-2025 18:33:07.883,0.030012,-0.17568,1.012356,1.575,-0.455,-0.875,0.087,-0.1125,-0.1305
06-26-2025 18:33:07.923,0.0549,-0.1647,0.960628,0.805,-0.56,0.245,0.0885,-0.114,-0.1245
06-26-2025 18:33:07.963,0.045872,-0.175436,0.996984,-0.315,-1.365,-0.42,0.0855,-0.1155,-0.129
06-26-2025 18:33:08.003,0.082472,-0.199592,0.985028,-0.525,-0.035,-0.49,0.087,-0.117,-0.129
06-26-2025 18:33:08.043,0.06954,-0.185684,0.908168,0.98,1.155,-0.525,0.084,-0.111,-0.1185
06-26-2025 18:33:08.083,0.097356,-0.175192,1.028704,0.945,0.7,-0.14,0.084,-0.1125,-0.1275
06-26-2025 18:33:08.123,0.032696,-0.22082,1.02968,1.155,0.7,0.035,0.0855,-0.111,-0.126
06-26-2025 18:33:08.163,0.09857599,-0.227408,0.971364,1.19,1.505,1.365,0.0975,-0.1155,-0.123
06-26-2025 18:33:08.203,-0.169092,-0.11956,1.01992,0.91,0.84,1.96,0.0915,-0.114,-0.1305
06-26-2025 18:33:08.243,0.030744,-0.184464,1.00284,0.385,-0.805,1.26,0.0885,-0.12,-0.132
06-26-2025 18:33:08.283,0.029036,-0.183732,1.000888,1.365,0.35,0.49,0.093,-0.1245,-0.1245
06-26-2025 18:33:08.323,0.066368,-0.170556,0.9821,0.77,0.91,-0.35,0.093,-0.1065,-0.135
06-26-2025 18:33:08.363,0.043432,-0.192272,0.995276,1.015,0.35,-1.505,0.0975,-0.108,-0.132
06-26-2025 18:33:08.403,0.073688,-0.195932,1.007476,0.63,0.7,-0.63,0.09,-0.1215,-0.1335
06-26-2025 18:33:08.443,0.044896,-0.18544,0.990396,0,0.525,0.07,0.096,-0.1125,-0.123
06-26-2025 18:33:08.483,0.027572,-0.2196,0.969168,0.84,-0.315,0.84,0.096,-0.1125,-0.123
06-26-2025 18:33:08.523,-0.000732,-0.179584,1.07848,2.345,-0.805,0.42,0.0885,-0.117,-0.126
06-26-2025 18:33:08.563,0.046116,-0.225212,0.997716,2.415,0.805,-1.61,0.099,-0.114,-0.1395
06-26-2025 18:33:08.603,0.04514,-0.090524,0.925492,4.235,1.68,-3.955,0.096,-0.1125,-0.129
06-26-2025 18:33:08.643,0.07905599,-0.109556,1.012112,4.585,1.12,-6.615,0.0975,-0.1185,-0.1245
06-26-2025 18:33:08.683,0.056608,-0.142984,1.048224,3.64,0.735,-11.34,0.0885,-0.1185,-0.1245
06-26-2025 18:33:08.723,0.069784,-0.194956,0.940132,1.89,4.655,-10.885,0.0885,-0.1185,-0.1245
06-26-2025 18:33:08.763,-0.002684,-0.203252,0.95282,0.91,2.415,-9.45,0.0915,-0.1185,-0.135
06-26-2025 18:33:08.803,-0.036844,-0.208132,1.015284,-0.175,0.7,-5.355,0.099,-0.123,-0.1305
06-26-2025 18:33:08.843,-0.039284,-0.176656,1.040904,-1.82,0.525,-2.835,0.099,-0.1245,-0.1275
06-26-2025 18:33:08.883,-0.026596,-0.213256,0.969412,-1.96,-0.315,-1.785,0.105,-0.129,-0.135
06-26-2025 18:33:08.923,0.001952,-0.203496,0.964532,-2.905,-2.135,-0.035,0.1005,-0.126,-0.129
06-26-2025 18:33:08.963,0.00976,-0.21838,1.004792,-0.665,-3.255,1.47,0.0945,-0.12,-0.1245
06-26-2025 18:33:09.003,0.058316,-0.164944,0.987224,0.455,-2.31,2.135,0.1095,-0.1245,-0.132
06-26-2025 18:33:09.043,0.069296,-0.171044,0.957212,1.19,-1.715,0.665,0.102,-0.1155,-0.126
06-26-2025 18:33:09.083,0.078812,-0.1403,0.976488,1.4,-0.98,-0.98,0.0945,-0.12,-0.1245
06-26-2025 18:33:09.123,0.071736,-0.169824,1.015528,0.945,0.14,-2.45,0.0945,-0.123,-0.1275
06-26-2025 18:33:09.163,0.03904,-0.179828,0.999424,0.945,0.84,-2.345,0.093,-0.129,-0.1305
06-26-2025 18:33:09.203,0.032452,-0.162992,0.97722,0.07,-0.07,-1.225,0.1005,-0.1155,-0.132
06-26-2025 18:33:09.243,0.028792,-0.182756,1.018456,-0.665,-0.28,-0.735,0.0945,-0.117,-0.1305
06-26-2025 18:33:09.283,-0.016592,-0.113216,1.044564,-0.595,-0.385,-0.98,0.087,-0.126,-0.1245
06-26-2025 18:33:09.323,0.033916,-0.194712,0.96136,0.175,-0.035,0.245,0.099,-0.1245,-0.123
06-26-2025 18:33:09.363,0.03294,-0.193004,0.962824,1.61,-0.07,0.28,0.0975,-0.123,-0.1305
06-26-2025 18:33:09.403,0.046116,-0.168116,1.018456,1.575,-0.63,-1.435,0.105,-0.12,-0.126
06-26-2025 18:33:09.443,0.04758,-0.168604,0.987712,1.365,-0.14,-1.015,0.0975,-0.123,-0.123
06-26-2025 18:33:09.483,0.06954,-0.149084,0.987224,0.315,-0.07,1.225,0.0945,-0.1275,-0.126
06-26-2025 18:33:09.523,0.074176,-0.177876,1.001132,-0.665,-0.805,1.855,0.099,-0.129,-0.123
06-26-2025 18:33:09.563,0.052948,-0.1952,0.991616,0.035,-0.245,0.175,0.099,-0.117,-0.1245
06-26-2025 18:33:09.603,0.050264,-0.192028,0.954772,0.385,1.61,-0.105,0.099,-0.12,-0.1275
06-26-2025 18:33:09.643,0.047824,-0.169336,0.993568,1.225,1.225,0,0.1035,-0.117,-0.1305
06-26-2025 18:33:09.683,0.009028,-0.15616,1.010404,1.295,0.315,0.7,0.0945,-0.1245,-0.129
06-26-2025 18:33:09.723,0.018056,-0.162748,1.003328,-0.035,0.945,0.91,0.096,-0.1215,-0.1305
06-26-2025 18:33:09.763,0.029524,-0.183488,0.983808,-0.595,0.035,0.28,0.0975,-0.1215,-0.1305
06-26-2025 18:33:09.803,0.011224,-0.192272,0.984296,0,-0.735,0.28,0.0855,-0.1125,-0.1215
06-26-2025 18:33:09.843,0.012688,-0.203252,0.998204,0.735,-0.385,0.56,0.0885,-0.117,-0.123
06-26-2025 18:33:09.883,0.05856,-0.16592,0.971364,1.715,-0.14,0.07,0.0945,-0.1245,-0.132
06-26-2025 18:33:09.923,0.064904,-0.172508,0.975268,1.54,-0.105,0.525,0.102,-0.1245,-0.1245
06-26-2025 18:33:09.963,0.055388,-0.153476,1.012844,1.015,-0.21,0.28,0.0945,-0.1275,-0.123
06-26-2025 18:33:10.003,0.037332,-0.156648,0.998448,0.455,0.595,-0.175,0.087,-0.126,-0.1215
06-26-2025 18:33:10.043,0.033916,-0.1769,1.007476,-1.155,0.525,0.455,0.0945,-0.12,-0.123
06-26-2025 18:33:10.083,0.017568,-0.202276,0.983564,0.91,-0.315,-0.91,0.09,-0.126,-0.1245
06-26-2025 18:33:10.123,0.023668,-0.178608,0.995276,1.61,-0.07,-0.98,0.0825,-0.1215,-0.1215
06-26-2025 18:33:10.163,0.048556,-0.161772,1.005036,1.68,-0.175,-0.84,0.093,-0.132,-0.1275
06-26-2025 18:33:10.203,0.080032,-0.138836,0.989176,0.315,-0.49,0.21,0.0885,-0.132,-0.1275
06-26-2025 18:33:10.243,0.061,-0.169092,0.987468,-0.56,-0.175,0.28,0.0885,-0.12,-0.1215
06-26-2025 18:33:10.283,0.058072,-0.182512,1.019432,-0.42,0.385,-0.245,0.087,-0.1215,-0.123
06-26-2025 18:33:10.323,0.054412,-0.17568,0.971852,-0.245,0.91,0.175,0.084,-0.132,-0.1275
06-26-2025 18:33:10.363,0.039772,-0.186172,0.976732,0.35,1.26,0.42,0.0915,-0.1275,-0.129
06-26-2025 18:33:10.403,0.019032,-0.173728,1.008696,1.05,1.085,-0.77,0.0885,-0.1305,-0.1245
06-26-2025 18:33:10.443,0.002928,-0.169336,1.000156,0.385,0.91,-0.875,0.0945,-0.1275,-0.126
06-26-2025 18:33:10.483,0.020984,-0.181048,0.998448,-0.175,0.28,0.455,0.0885,-0.126,-0.1275
06-26-2025 18:33:10.523,0.016592,-0.182024,0.994788,-0.315,-0.98,0.84,0.087,-0.129,-0.1305
06-26-2025 18:33:10.563,0.027084,-0.187636,0.987712,-0.42,-0.84,0.56,0.0885,-0.126,-0.1215
06-26-2025 18:33:10.603,0.02196,-0.2135,0.977708,0.14,-0.21,-0.07,0.0915,-0.1245,-0.132
06-26-2025 18:33:10.643,0.039772,-0.1891,0.927688,0.945,0,0.665,0.081,-0.1245,-0.1215
06-26-2025 18:33:10.683,0.001464,-0.183732,0.957212,0.945,-0.105,1.19,0.0855,-0.1275,-0.123
06-26-2025 18:33:10.723,0.002928,-0.172264,1.004548,-0.07,0.105,0.98,0.093,-0.1215,-0.126
06-26-2025 18:33:10.763,0.066856,-0.162504,1.017236,-0.665,0.49,0.805,0.09,-0.12,-0.1185
06-26-2025 18:33:10.803,0.042944,-0.18422,0.957212,-0.315,0.105,0.77,0.0885,-0.1275,-0.126
06-26-2025 18:33:10.843,0.030744,-0.185684,0.994788,0.525,-0.21,0.175,0.087,-0.126,-0.12
06-26-2025 18:33:10.883,0.028792,-0.183732,0.988932,1.4,0.525,-1.33,0.0825,-0.126,-0.123
06-26-2025 18:33:10.923,0.027328,-0.166896,0.980148,1.015,0.385,-1.4,0.0885,-0.1125,-0.1305
06-26-2025 18:33:10.963,0.040504,-0.172996,1.00162,0.665,-0.35,-0.49,0.0855,-0.129,-0.1335
06-26-2025 18:33:11.003,0.043676,-0.1769,1.002352,0.105,-0.385,0.525,0.0945,-0.132,-0.117
06-26-2025 18:33:11.043,0.051972,-0.184464,0.974536,0,0.14,0.14,0.0915,-0.1215,-0.1365
06-26-2025 18:33:11.083,0.059536,-0.193004,0.978196,0.28,0.175,-0.07,0.087,-0.132,-0.1275
06-26-2025 18:33:11.123,0.043676,-0.18178,1.002108,1.26,0.315,0.595,0.093,-0.1245,-0.135
06-26-2025 18:33:11.163,0.038064,-0.169092,0.98332,1.295,0.525,0.735,0.087,-0.1215,-0.1305
06-26-2025 18:33:11.203,0.018056,-0.172264,1.012112,0.175,0.35,0.56,0.0885,-0.1305,-0.1245
06-26-2025 18:33:11.243,0.0366,-0.172508,0.987224,0,0.105,-0.315,0.087,-0.1245,-0.1185
06-26-2025 18:33:11.283,0.02806,-0.194224,0.991128,0.07,-0.14,0.385,0.0795,-0.129,-0.1275
06-26-2025 18:33:11.323,0.038308,-0.176656,0.992104,0.7,-0.175,-0.07,0.0795,-0.1245,-0.117
06-26-2025 18:33:11.363,0.041236,-0.177632,0.980636,0.84,-0.035,-1.435,0.09,-0.126,-0.126
06-26-2025 18:33:11.403,0.039772,-0.182024,0.999668,1.295,-0.21,-1.085,0.0795,-0.129,-0.1365
06-26-2025 18:33:11.443,0.047824,-0.17324,0.997228,0.98,-0.07,-0.07,0.0825,-0.1185,-0.123
06-26-2025 18:33:11.483,0.046604,-0.178852,0.98942,0.245,0.21,-0.07,0.084,-0.1245,-0.126
06-26-2025 18:33:11.523,0.044896,-0.174216,0.98698,-0.28,0.28,-0.525,0.087,-0.129,-0.1215
06-26-2025 18:33:11.563,0.050752,-0.193736,0.980148,0.42,-0.07,0.245,0.0885,-0.1245,-0.1305
06-26-2025 18:33:11.603,0.017568,-0.17934,1.003572,1.295,0.105,0.805,0.0945,-0.129,-0.1275
06-26-2025 18:33:11.643,0.055876,-0.142984,0.978684,0.105,0.805,-0.56,0.0795,-0.12,-0.1245
06-26-2025 18:33:11.683,0.024888,-0.194712,0.988444,1.05,-0.28,-0.735,0.0765,-0.126,-0.1305
06-26-2025 18:33:11.723,0.054412,-0.162748,0.999424,0.245,-0.035,1.82,0.093,-0.1245,-0.129
06-26-2025 18:33:11.763,0.02196,-0.19764,0.99064,0.7,-0.21,0.07,0.0765,-0.12,-0.126
06-26-2025 18:33:11.803,0.046116,-0.166896,0.97478,-0.28,0.21,-0.91,0.0705,-0.1275,-0.129
06-26-2025 18:33:11.843,0.04758,-0.18666,1.002352,0.595,0.455,0.7,0.087,-0.1305,-0.123
06-26-2025 18:33:11.883,0.031964,-0.180316,0.982344,1.68,-0.21,0.665,0.0825,-0.129,-0.1305
06-26-2025 18:33:11.923,0.04636,-0.168116,0.991128,0,0.07,0.665,0.093,-0.129,-0.123
06-26-2025 18:33:11.963,0.047824,-0.195688,1.00284,0.49,0.105,-0.245,0.087,-0.1245,-0.123
06-26-2025 18:33:12.003,0.042456,-0.165432,0.974292,0.07,0.175,0.56,0.084,-0.123,-0.1215
06-26-2025 18:33:12.043,0.040748,-0.189832,0.988444,0.665,0.07,0.56,0.084,-0.1185,-0.126
06-26-2025 18:33:12.083,0.04026,-0.189832,0.999424,0.805,0.315,-0.14,0.087,-0.123,-0.1155
06-26-2025 18:33:12.123,0.036112,-0.174216,0.987956,0.77,0.385,-0.175,0.0945,-0.132,-0.132
06-26-2025 18:33:12.163,0.036356,-0.184464,0.988932,0.735,0.07,0.525,0.09,-0.123,-0.129
06-26-2025 18:33:12.203,0.032696,-0.164944,0.997716,0.07,-0.175,0.56,0.0975,-0.129,-0.126
06-26-2025 18:33:12.243,0.030012,-0.188856,0.99186,0.21,-0.07,-0.07,0.0855,-0.123,-0.1245
06-26-2025 18:33:12.283,0.046116,-0.17934,0.987956,0.35,0.21,-0.21,0.0885,-0.123,-0.1335
06-26-2025 18:33:12.323,0.039528,-0.179096,0.986004,0.665,-0.105,-0.14,0.09,-0.129,-0.1245
06-26-2025 18:33:12.363,0.044164,-0.187148,0.993324,0.84,0,-0.175,0.0915,-0.129,-0.1275
06-26-2025 18:33:12.403,0.046116,-0.173484,0.984052,0.385,0.175,-0.42,0.0855,-0.1275,-0.129
06-26-2025 18:33:12.443,0.039528,-0.183488,0.990884,0.56,0.07,-0.07,0.09,-0.117,-0.1275
06-26-2025 18:33:12.483,0.043188,-0.185196,0.99064,0.63,0.245,0.245,0.09,-0.132,-0.126
06-26-2025 18:33:12.523,0.043188,-0.183,0.979904,0.525,0.35,0.175,0.0855,-0.126,-0.126
06-26-2025 18:33:12.563,0.037332,-0.175924,1.007964,0.63,0.035,0.385,0.0795,-0.12,-0.1305
06-26-2025 18:33:12.603,0.053192,-0.17934,0.983076,1.12,-0.14,-0.175,0.0855,-0.123,-0.1245
06-26-2025 18:33:12.643,0.028304,-0.180316,1.002108,0.945,0,0.56,0.0795,-0.117,-0.1275
06-26-2025 18:33:12.683,0.052704,-0.15982,0.989176,0.7,-0.175,-0.175,0.0825,-0.123,-0.1245
06-26-2025 18:33:12.723,0.030744,-0.186904,0.994788,0.315,-0.07,-0.245,0.0795,-0.132,-0.1275
06-26-2025 18:33:12.763,0.041968,-0.176656,1.008208,0.525,0.49,-0.07,0.084,-0.126,-0.123
06-26-2025 18:33:12.803,0.057584,-0.215452,0.96136,0.49,0.21,-0.07,0.0885,-0.1215,-0.123
06-26-2025 18:33:12.843,0.027816,-0.224236,0.982588,0.7,-0.175,0.21,0.0885,-0.126,-0.1305
06-26-2025 18:33:12.883,0.0305,-0.172752,0.99918,0.735,0.77,-0.175,0.0915,-0.126,-0.1245
06-26-2025 18:33:12.923,0.040748,-0.161772,0.98576,0.385,0.315,-0.175,0.087,-0.123,-0.1305
06-26-2025 18:33:12.963,0.024156,-0.182512,1.005768,0.07,-0.35,-0.07,0.0885,-0.126,-0.1275
06-26-2025 18:33:13.003,0.038796,-0.183244,1.009672,-0.105,0.385,0.21,0.1035,-0.117,-0.126
06-26-2025 18:33:13.043,0.049288,-0.185684,0.955504,0.35,0.35,-0.63,0.0885,-0.126,-0.1215
06-26-2025 18:33:13.083,0.041236,-0.183488,0.99186,0.315,-0.49,-0.105,0.0795,-0.129,-0.123
06-26-2025 18:33:13.123,0.039284,-0.189588,1.011136,1.4,0.28,0.105,0.09,-0.126,-0.1275
06-26-2025 18:33:13.163,0.04758,-0.173728,0.955016,1.26,0.385,-0.245,0.09,-0.123,-0.1215
06-26-2025 18:33:13.203,0.045384,-0.171044,0.98454,0.455,-0.49,-0.245,0.09,-0.126,-0.126
06-26-2025 18:33:13.243,0.035868,-0.19642,1.014308,1.155,-0.07,0.7,0.0945,-0.126,-0.123
06-26-2025 18:33:13.283,0.060756,-0.143228,0.99064,1.085,0.525,0.385,0.0915,-0.123,-0.123
06-26-2025 18:33:13.323,0.027084,-0.181048,1.012112,0.525,0.175,-0.35,0.093,-0.123,-0.1275
06-26-2025 18:33:13.363,0.044896,-0.173728,1.020408,0.595,0.385,-0.035,0.0825,-0.123,-0.126
06-26-2025 18:33:13.403,0.02562,-0.185928,0.976732,0.49,0.175,0.105,0.09,-0.1215,-0.126
06-26-2025 18:33:13.443,0.027084,-0.154452,0.98332,-0.315,0,-0.035,0.0825,-0.1275,-0.126
06-26-2025 18:33:13.483,0.02318,-0.207156,1.010648,-0.175,-0.21,-0.945,0.0885,-0.1275,-0.132
06-26-2025 18:33:13.523,0.037332,-0.187148,0.983076,-0.21,0.455,0.315,0.0855,-0.1275,-0.138
06-26-2025 18:33:13.563,0.045872,-0.18544,0.958432,1.4,-0.385,0.21,0.0855,-0.1275,-0.138
06-26-2025 18:33:13.603,0.040748,-0.178608,0.99186,1.015,-0.56,-0.245,0.0795,-0.123,-0.123
06-26-2025 18:33:13.643,0.045628,-0.19764,0.997472,1.855,0.21,-1.155,0.096,-0.123,-0.1275
06-26-2025 18:33:13.683,0.04758,-0.150304,0.973072,1.26,0.56,-0.245,0.0945,-0.126,-0.1245
06-26-2025 18:33:13.723,0.04392,-0.182024,0.986492,0.63,-0.105,0,0.0855,-0.129,-0.132
06-26-2025 18:33:13.763,0.031476,-0.156648,0.995276,-0.175,0.245,0.385,0.0915,-0.129,-0.126
06-26-2025 18:33:13.803,0.007564,-0.1952,0.964288,-0.07,0.14,0.175,0.0915,-0.129,-0.126
06-26-2025 18:33:13.843,0.062464,-0.222284,0.997228,0.945,-0.14,0.245,0.0795,-0.123,-0.129
06-26-2025 18:33:13.883,0.009272,-0.17568,1.00894,1.085,-0.035,0.525,0.084,-0.126,-0.117
06-26-2025 18:33:13.923,0.0305,-0.164212,1.002108,0.14,1.05,-0.385,0.084,-0.1155,-0.126
06-26-2025 18:33:13.963,0.033672,-0.174704,0.985028,-0.49,0.42,-1.295,0.0885,-0.126,-0.1275
06-26-2025 18:33:14.003,0.047336,-0.194224,0.98942,-0.735,-0.455,-0.14,0.078,-0.12,-0.129
06-26-2025 18:33:14.043,0.031232,-0.211548,0.982832,0.525,-0.525,0.105,0.078,-0.12,-0.129
06-26-2025 18:33:14.083,0.04148,-0.19032,0.976488,0.91,0.28,-0.945,0.0855,-0.1365,-0.126
06-26-2025 18:33:14.123,0.055632,-0.17202,0.972096,1.33,0.455,-1.015,0.0825,-0.1185,-0.129
06-26-2025 18:33:14.163,0.054412,-0.170312,0.994056,1.505,-0.21,0.56,0.087,-0.1185,-0.1305
06-26-2025 18:33:14.203,0.045628,-0.183,1.002596,0.875,-0.175,1.225,0.0885,-0.1275,-0.123
06-26-2025 18:33:14.243,0.043188,-0.174216,0.972096,-0.035,0.315,0.665,0.0855,-0.129,-0.1275
06-26-2025 18:33:14.283,0.028548,-0.17202,0.979904,0.455,-0.21,0.035,0.09,-0.126,-0.12
06-26-2025 18:33:14.323,0.02684,-0.193492,0.999424,1.925,0.455,0.455,0.0915,-0.1215,-0.1275
06-26-2025 18:33:14.363,0.03294,-0.155428,0.984784,1.96,0.42,-0.315,0.0825,-0.1245,-0.126
06-26-2025 18:33:14.403,0.025376,-0.162748,1.013576,1.26,-0.35,-1.26,0.084,-0.129,-0.1275
06-26-2025 18:33:14.443,0.018544,-0.168848,1.01748,-1.505,0.175,0.455,0.087,-0.123,-0.123
06-26-2025 18:33:14.483,0.073688,-0.235948,1.003328,0.21,-0.455,-0.35,0.09,-0.129,-0.138
06-26-2025 18:33:14.523,0.046116,-0.187636,0.982344,-0.49,-0.07,0.77,0.0825,-0.123,-0.1215
06-26-2025 18:33:14.563,0.040992,-0.2806,1.006012,2.17,-0.28,-0.98,0.0885,-0.1215,-0.1275
06-26-2025 18:33:14.603,0.033428,-0.101016,0.988444,1.47,1.225,0.735,0.0915,-0.1305,-0.12
06-26-2025 18:33:14.643,0.029036,-0.166408,0.996984,1.05,0.735,0.56,0.0915,-0.12,-0.1305
06-26-2025 18:33:14.683,0.023912,-0.203984,1.01748,0.63,0.28,-0.735,0.096,-0.132,-0.132
06-26-2025 18:33:14.723,0.038064,-0.15006,1.021384,-2.1,0.385,0,0.084,-0.117,-0.12
06-26-2025 18:33:14.763,0.031232,-0.2135,0.95648,-0.84,-0.315,-0.14,0.087,-0.1245,-0.126
06-26-2025 18:33:14.803,0.039772,-0.163236,0.971852,0.245,-0.7,-0.63,0.09,-0.123,-0.126
06-26-2025 18:33:14.843,0.0305,-0.18422,1.00894,1.085,-0.035,-0.84,0.0855,-0.126,-0.129
06-26-2025 18:33:14.883,0.077104,-0.208376,0.9699,2.73,0.63,-1.19,0.087,-0.12,-0.117
06-26-2025 18:33:14.923,0.041968,-0.142008,0.983076,0.7,-0.525,0.315,0.0885,-0.126,-0.1275
06-26-2025 18:33:14.963,0.038552,-0.175924,1.011868,0.07,-0.035,1.12,0.093,-0.126,-0.129
06-26-2025 18:33:15.003,0.039284,-0.15982,0.94916,0.105,0.7,0.105,0.084,-0.1215,-0.1245
06-26-2025 18:33:15.043,0.02806,-0.189832,0.971852,0.7,-0.07,-0.665,0.096,-0.1215,-0.1245
06-26-2025 18:33:15.083,0.036356,-0.220576,1.026996,3.045,0.07,-0.56,0.0885,-0.129,-0.12
06-26-2025 18:33:15.123,0.031232,-0.122244,0.990396,2.135,-0.035,0.105,0.0915,-0.1215,-0.1245
06-26-2025 18:33:15.163,0.049532,-0.14274,0.958188,0.805,-1.155,-0.42,0.0915,-0.129,-0.129
06-26-2025 18:33:15.203,0.036844,-0.172752,1.024556,-0.035,-0.455,0.175,0.0855,-0.1215,-0.1215
06-26-2025 18:33:15.243,0.05734,-0.166408,0.955992,-0.7,0.84,0.21,0.0915,-0.1275,-0.126
06-26-2025 18:33:15.283,0.036112,-0.247904,0.989176,0.735,-0.105,0.14,0.0885,-0.123,-0.1215
06-26-2025 18:33:15.323,0.01342,-0.195444,1.039684,1.54,1.19,0.7,0.0855,-0.1245,-0.1305
06-26-2025 18:33:15.363,0.0244,-0.143716,1.022604,-0.595,2.31,1.05,0.093,-0.123,-0.12
06-26-2025 18:33:15.403,0.029768,-0.166164,0.975756,-0.14,0.07,-1.26,0.09,-0.12,-0.1275
06-26-2025 18:33:15.443,0.01586,-0.18666,1.01016,-2.31,-0.805,0.945,0.078,-0.1245,-0.1185
06-26-2025 18:33:15.483,0.030012,-0.225212,0.986492,0.315,-0.35,-1.12,0.096,-0.123,-0.1215
06-26-2025 18:33:15.523,0.047824,-0.202276,0.93818,0.28,-0.35,-2.555,0.081,-0.117,-0.12
06-26-2025 18:33:15.563,0.066368,-0.1952,0.994788,0.98,-0.42,-0.84,0.081,-0.126,-0.1215
06-26-2025 18:33:15.603,0.0549,-0.180072,0.992592,3.045,-0.07,0.91,0.084,-0.1275,-0.12
06-26-2025 18:33:15.643,0.045384,-0.15494,0.966972,1.575,0.315,0.07,0.0825,-0.1245,-0.1275
06-26-2025 18:33:15.683,0.05368,-0.181292,0.996984,-0.385,0.245,-1.015,0.093,-0.1305,-0.129
06-26-2025 18:33:15.723,0.03904,-0.186904,1.000156,0.84,0.21,0.91,0.087,-0.1125,-0.126
06-26-2025 18:33:15.763,0.023668,-0.177388,0.970388,0.805,0.455,1.155,0.084,-0.123,-0.1245
06-26-2025 18:33:15.803,0.035868,-0.1952,0.991616,1.015,0.21,-0.35,0.0885,-0.1275,-0.126
06-26-2025 18:33:15.843,0.030012,-0.17812,0.995032,1.715,-0.175,-0.56,0.0855,-0.126,-0.123
06-26-2025 18:33:15.883,0.028792,-0.1708,0.992348,1.435,-0.21,0.21,0.081,-0.1275,-0.1275
06-26-2025 18:33:15.923,0.048556,-0.154696,0.978928,0.735,-0.49,0.455,0.09,-0.1335,-0.1245
06-26-2025 18:33:15.963,0.043432,-0.184952,0.975268,0.945,-0.77,-0.21,0.0855,-0.1335,-0.1185
06-26-2025 18:33:16.003,0.07686,-0.199592,1.00528,0.98,0.035,-0.35,0.084,-0.12,-0.12
06-26-2025 18:33:16.043,0.056608,-0.175436,0.99918,2.17,-0.455,-0.875,0.084,-0.12,-0.129
06-26-2025 18:33:16.083,0.001952,-0.1586,1.028948,0.595,0.525,0.945,0.0915,-0.126,-0.1245
06-26-2025 18:33:16.123,0.036356,-0.166164,1.038952,0.56,2.24,1.33,0.09,-0.1305,-0.1245
06-26-2025 18:33:16.163,0.027816,-0.13786,0.98454,-1.155,0.455,0.245,0.093,-0.1155,-0.1245
06-26-2025 18:33:16.203,0.025132,-0.190564,1.025532,-1.75,-0.21,-0.385,0.0825,-0.123,-0.1275
06-26-2025 18:33:16.243,0.028548,-0.19276,1.018456,-0.98,0.21,-2.135,0.0915,-0.1305,-0.129
06-26-2025 18:33:16.283,0.04392,-0.1586,0.933544,-0.595,-0.035,-4.235,0.0885,-0.1245,-0.1305
06-26-2025 18:33:16.323,0.060512,-0.20984,0.983808,0.84,-0.665,-3.15,0.0795,-0.1215,-0.1245
06-26-2025 18:33:16.363,0.064904,-0.196176,1.023336,2.03,-0.595,-2.135,0.0915,-0.12,-0.129
06-26-2025 18:33:16.403,0.058804,-0.17812,0.957212,0.665,-0.035,-1.855,0.093,-0.123,-0.1275
06-26-2025 18:33:16.443,0.076616,-0.183244,0.983808,-0.42,0.21,0.595,0.087,-0.129,-0.1185
06-26-2025 18:33:16.483,0.043188,-0.177144,0.986736,0.525,0.035,2.205,0.096,-0.1305,-0.1275
06-26-2025 18:33:16.523,0.028792,-0.186172,0.960628,0.875,0.805,2.275,0.093,-0.132,-0.1215
06-26-2025 18:33:16.563,0.05612,-0.18544,0.973316,1.33,0.805,1.33,0.081,-0.1305,-0.123
06-26-2025 18:33:16.603,0.027816,-0.162016,0.985272,2.275,-0.21,1.05,0.087,-0.1275,-0.135
06-26-2025 18:33:16.643,-0.000488,-0.148596,1.010404,1.575,0.14,0.385,0.081,-0.1215,-0.1245
06-26-2025 18:33:16.683,0.045384,-0.150304,0.987468,-0.84,0.07,-1.26,0.0855,-0.132,-0.1275
06-26-2025 18:33:16.723,0.047092,-0.210084,0.958188,0.945,-0.98,-0.245,0.084,-0.126,-0.1185
06-26-2025 18:33:16.763,0.036112,-0.190564,0.991128,1.75,-0.7,0.56,0.0855,-0.1305,-0.1215
06-26-2025 18:33:16.803,0.049532,-0.1891,0.995276,1.82,0.14,-1.505,0.0825,-0.1245,-0.123
06-26-2025 18:33:16.843,0.055876,-0.166652,0.981612,2.065,0.595,-0.735,0.0885,-0.1305,-0.123
06-26-2025 18:33:16.883,0.066368,-0.16226,0.999668,1.365,-0.14,1.785,0.084,-0.1275,-0.12
06-26-2025 18:33:16.923,0.039284,-0.180316,1.0065,0.525,-0.245,1.645,0.09,-0.129,-0.1215
06-26-2025 18:33:16.963,0.043432,-0.177876,0.9821,-0.805,0.91,1.575,0.081,-0.1275,-0.1275
06-26-2025 18:33:17.003,-0.006588,-0.205204,1.006988,0.35,1.4,0.035,0.0825,-0.1185,-0.1305
06-26-2025 18:33:17.043,0.02806,-0.123708,1.029436,-1.96,1.855,1.645,0.087,-0.1215,-0.126
06-26-2025 18:33:17.083,0.039528,-0.213988,0.981368,1.61,0.245,0.35,0.084,-0.1335,-0.1275
06-26-2025 18:33:17.123,0.008784,-0.156892,0.988444,-0.63,-0.35,-0.665,0.0825,-0.1275,-0.1245
06-26-2025 18:33:17.163,0.052216,-0.195444,0.99308,0.105,-0.56,-3.01,0.078,-0.1305,-0.1215
06-26-2025 18:33:17.203,0.045384,-0.202764,0.972584,1.47,-0.455,-2.45,0.09,-0.1275,-0.123
06-26-2025 18:33:17.243,0.07124799,-0.188612,0.971608,0.525,-0.245,-0.77,0.09,-0.1185,-0.123
06-26-2025 18:33:17.283,0.040016,-0.21594,0.98088,1.19,0.035,0.245,0.093,-0.129,-0.129
06-26-2025 18:33:17.323,0.050508,-0.184952,0.959896,1.015,0.315,1.68,0.0885,-0.123,-0.1245
06-26-2025 18:33:17.363,0.033184,-0.199592,0.98454,1.61,-0.035,2.135,0.0915,-0.132,-0.126
06-26-2025 18:33:17.403,0.009516,-0.162504,1.02968,1.575,0.875,2.66,0.093,-0.1245,-0.129
06-26-2025 18:33:17.443,0.031964,-0.134688,0.996496,0.175,0.455,0.42,0.0915,-0.1275,-0.1185
06-26-2025 18:33:17.483,-0.007564,-0.146644,1.05408,-1.435,0.665,-0.875,0.0945,-0.1155,-0.1245
06-26-2025 18:33:17.523,0.066368,-0.141032,1.014308,-2.17,0.525,-1.365,0.084,-0.126,-0.12
06-26-2025 18:33:17.563,0.043432,-0.197152,0.960628,-1.54,-1.225,-2.59,0.0885,-0.1275,-0.132
06-26-2025 18:33:17.603,0.053436,-0.210572,0.987468,-0.7,-0.525,-3.255,0.0855,-0.1215,-0.123
06-26-2025 18:33:17.643,0.06954,-0.19764,0.980636,1.575,0.42,-5.18,0.0975,-0.1335,-0.1245
06-26-2025 18:33:17.683,0.051728,-0.19886,0.964532,2.31,0.525,-3.64,0.09,-0.126,-0.126
06-26-2025 18:33:17.723,0.060024,-0.191784,1.00894,0.84,0.315,-0.035,0.0885,-0.1275,-0.123
06-26-2025 18:33:17.763,0.029036,-0.178852,0.992836,-0.7,-0.035,1.925,0.0945,-0.12,-0.1245
06-26-2025 18:33:17.803,0.032208,-0.195688,0.958188,-1.435,0.63,3.465,0.087,-0.1215,-0.123
06-26-2025 18:33:17.843,0.048312,-0.189344,0.969412,0.14,0.315,3.465,0.084,-0.1275,-0.1245
06-26-2025 18:33:17.883,0.00854,-0.1769,0.987956,2.205,0.35,2.31,0.087,-0.1185,-0.1275
06-26-2025 18:33:17.923,0.03294,-0.144204,0.99308,1.855,0.63,0.63,0.096,-0.126,-0.129
06-26-2025 18:33:17.963,0.034648,-0.131516,1.004792,0.28,-0.525,-0.875,0.1005,-0.1245,-0.126
06-26-2025 18:33:18.003,0.035624,-0.168604,1.000644,-0.77,-0.595,-0.945,0.0945,-0.132,-0.1275
06-26-2025 18:33:18.043,0.04758,-0.19154,0.976488,-0.805,-0.175,-2.03,0.09,-0.117,-0.1215
06-26-2025 18:33:18.083,0.041236,-0.214476,0.966484,0.07,0.035,-3.395,0.084,-0.129,-0.129
06-26-2025 18:33:18.123,0.048556,-0.215452,0.990884,1.785,0.56,-2.765,0.0915,-0.126,-0.129
06-26-2025 18:33:18.163,0.04148,-0.172508,1.005524,2.45,0.07,-0.91,0.09,-0.12,-0.126
06-26-2025 18:33:18.203,0.04026,-0.167384,1.008208,0.735,-0.105,1.085,0.0885,-0.1245,-0.1185
06-26-2025 18:33:18.243,0.057828,-0.1708,1.012844,-0.665,-0.07,2.695,0.09,-0.1245,-0.1245
06-26-2025 18:33:18.283,0.045872,-0.1891,0.976976,-0.63,0.07,3.115,0.09,-0.123,-0.126
06-26-2025 18:33:18.323,0.032208,-0.193248,0.968436,0.07,0.665,2.205,0.087,-0.126,-0.123
06-26-2025 18:33:18.363,0.024644,-0.182024,0.985272,1.05,0.805,0.175,0.0825,-0.1215,-0.132
06-26-2025 18:33:18.403,0.016836,-0.161528,0.991616,1.575,0.315,-1.155,0.093,-0.1335,-0.12
06-26-2025 18:33:18.443,0.02928,-0.159576,1.00162,0.84,-0.455,-1.435,0.0975,-0.1245,-0.132
06-26-2025 18:33:18.483,0.035868,-0.170312,1.0004,-0.07,-0.875,-1.715,0.09,-0.123,-0.1245
06-26-2025 18:33:18.523,0.056852,-0.195444,0.98698,-0.245,-0.42,-1.435,0.087,-0.126,-0.1275
06-26-2025 18:33:18.563,0.064416,-0.192516,0.975268,0.525,0,-0.98,0.081,-0.129,-0.123
06-26-2025 18:33:18.603,0.049288,-0.190076,0.989176,1.085,0.42,-0.42,0.096,-0.12,-0.1245
06-26-2025 18:33:18.643,0.045872,-0.176168,0.99064,0.98,0.735,0.63,0.0975,-0.123,-0.1275
06-26-2025 18:33:18.683,0.036356,-0.1708,0.990152,0.35,0.315,1.435,0.09,-0.1185,-0.129
06-26-2025 18:33:18.723,0.031476,-0.183976,0.994788,0,0.07,1.785,0.0855,-0.1125,-0.1245
06-26-2025 18:33:18.763,0.025864,-0.18666,0.987468,0.175,0.175,1.05,0.0855,-0.12,-0.1305
06-26-2025 18:33:18.803,0.027572,-0.187148,0.986004,0.77,0.21,-0.07,0.0915,-0.1215,-0.132
06-26-2025 18:33:18.843,0.03172,-0.170312,0.991372,1.295,0.07,-0.84,0.09,-0.1245,-0.126
06-26-2025 18:33:18.883,0.03904,-0.16592,1.001132,0.98,-0.245,-1.225,0.09,-0.1245,-0.126
06-26-2025 18:33:18.923,0.050264,-0.174948,0.992836,0.175,-0.35,-1.05,0.0855,-0.1245,-0.126
06-26-2025 18:33:18.963,0.059536,-0.181536,0.990396,-0.21,-0.21,-0.63,0.0855,-0.1245,-0.129
06-26-2025 18:33:19.003,0.050264,-0.19764,0.984296,0.105,0.21,-0.21,0.0945,-0.1155,-0.126
06-26-2025 18:33:19.043,0.042212,-0.194712,0.97966,0.665,0.63,-0.035,0.0825,-0.1245,-0.129
06-26-2025 18:33:19.083,0.030012,-0.188368,0.992348,1.12,0.63,0.21,0.081,-0.1215,-0.1245
06-26-2025 18:33:19.123,0.030744,-0.176412,0.999912,1.015,0.245,0.805,0.081,-0.1215,-0.1245
06-26-2025 18:33:19.163,0.033916,-0.171288,0.998204,0.56,-0.175,0.875,0.087,-0.1215,-0.117
06-26-2025 18:33:19.203,0.040992,-0.174216,0.991128,0.14,-0.28,0.525,0.09,-0.1245,-0.123
06-26-2025 18:33:19.243,0.046848,-0.180072,0.984296,0.315,-0.07,-0.035,0.087,-0.1305,-0.1215
06-26-2025 18:33:19.283,0.047824,-0.181048,0.983564,0.63,0.21,-0.665,0.087,-0.126,-0.123
06-26-2025 18:33:19.323,0.037088,-0.180316,0.989176,0.7,0.315,-1.12,0.0885,-0.1275,-0.12
06-26-2025 18:33:19.363,0.045384,-0.182512,0.992348,0.595,0.175,-0.875,0.0915,-0.123,-0.1335
06-26-2025 18:33:19.403,0.035868,-0.184952,0.990884,0.385,-0.035,-0.35,0.084,-0.126,-0.1215
06-26-2025 18:33:19.443,0.035624,-0.189344,0.990396,0.35,0,0.07,0.0855,-0.126,-0.126
06-26-2025 18:33:19.483,0.039772,-0.184952,0.98576,0.595,0.14,0.35,0.093,-0.1275,-0.123
06-26-2025 18:33:19.523,0.042944,-0.178608,0.985028,0.91,0.245,0.525,0.09,-0.1275,-0.1185
06-26-2025 18:33:19.563,0.044652,-0.177632,0.992836,0.875,0.245,0.49,0.0885,-0.126,-0.123
06-26-2025 18:33:19.603,0.034648,-0.168848,0.992836,0.49,0.105,0.28,0.09,-0.129,-0.123
06-26-2025 18:33:19.643,0.040016,-0.172508,0.995764,0.28,0.07,-0.035,0.09,-0.132,-0.12
06-26-2025 18:33:19.683,0.042456,-0.181536,0.98698,0.28,0.035,-0.35,0.0885,-0.1245,-0.126
06-26-2025 18:33:19.723,0.0427,-0.181292,0.989176,0.525,0.175,-0.665,0.09,-0.1245,-0.114
06-26-2025 18:33:19.763,0.03782,-0.18178,0.988688,0.735,0.245,-0.735,0.084,-0.129,-0.123
06-26-2025 18:33:19.803,0.03904,-0.177632,0.991372,0.77,0.07,-0.49,0.087,-0.126,-0.12
06-26-2025 18:33:19.843,0.039284,-0.174216,0.99552,0.315,-0.035,0.21,0.0885,-0.126,-0.1185
06-26-2025 18:33:19.883,0.055388,-0.192028,0.982344,0.28,0.07,0.21,0.087,-0.1245,-0.126
06-26-2025 18:33:19.923,0.045628,-0.178364,0.982588,0.35,-0.105,0.35,0.0915,-0.1305,-0.129
06-26-2025 18:33:19.963,0.043188,-0.188612,0.998448,0.77,0.42,0.315,0.09,-0.12,-0.1245
06-26-2025 18:33:20.003,0.035868,-0.17446,0.98576,0.735,0.49,-0.245,0.093,-0.123,-0.1215
06-26-2025 18:33:20.043,0.031232,-0.178852,0.99308,0.77,0.245,-0.21,0.093,-0.117,-0.12
06-26-2025 18:33:20.083,0.027328,-0.17812,0.998692,0.455,-0.105,0.07,0.0855,-0.1275,-0.1275
06-26-2025 18:33:20.123,0.037088,-0.188612,0.98088,0.455,-0.21,-0.315,0.093,-0.1185,-0.129
06-26-2025 18:33:20.163,0.044652,-0.176656,0.984784,0.385,0.035,-0.175,0.0855,-0.1305,-0.1215
06-26-2025 18:33:20.203,0.03782,-0.187148,0.987468,1.085,0,-0.56,0.0945,-0.1245,-0.126
06-26-2025 18:33:20.243,0.04026,-0.168604,0.993324,0.665,0.21,-0.105,0.084,-0.123,-0.123
06-26-2025 18:33:20.283,0.051728,-0.185928,0.986492,0.63,0.105,0,0.0915,-0.123,-0.1155
06-26-2025 18:33:20.323,0.044652,-0.183488,0.991616,0.595,0.105,0.315,0.0855,-0.1365,-0.123
06-26-2025 18:33:20.363,0.02928,-0.181536,0.976488,0.175,0.28,0.245,0.087,-0.1215,-0.1245
06-26-2025 18:33:20.403,0.031232,-0.180316,0.984784,0.35,0.21,-0.175,0.0855,-0.126,-0.1245
06-26-2025 18:33:20.443,0.038064,-0.197884,0.989908,1.085,0.14,-0.21,0.0945,-0.126,-0.1215
06-26-2025 18:33:20.483,0.033428,-0.16592,0.986248,0.77,-0.07,-0.315,0.1005,-0.1185,-0.123
06-26-2025 18:33:20.523,0.02562,-0.1586,0.998448,0.35,0.035,-0.28,0.0915,-0.1275,-0.1215
06-26-2025 18:33:20.563,0.048556,-0.157136,0.979172,-0.105,0.245,-0.105,0.0885,-0.126,-0.1305
06-26-2025 18:33:20.603,0.039772,-0.1952,0.99186,0.56,-0.14,0.49,0.087,-0.117,-0.123
06-26-2025 18:33:20.643,0.040748,-0.19642,0.98698,0.98,0.455,-0.21,0.0915,-0.1275,-0.1215
06-26-2025 18:33:20.683,0.024156,-0.158112,0.991128,0.21,0.35,0.105,0.0855,-0.123,-0.126
06-26-2025 18:33:20.723,0.032696,-0.182024,0.991616,1.435,-0.035,0.35,0.0885,-0.123,-0.12
06-26-2025 18:33:20.763,0.039284,-0.169824,0.984052,0.455,-0.42,0.28,0.0885,-0.1215,-0.1275
06-26-2025 18:33:20.803,0.056364,-0.211792,0.987468,0.735,-0.315,-0.665,0.0825,-0.129,-0.1245
06-26-2025 18:33:20.843,0.058316,-0.168604,0.99674,0.98,0.14,-0.49,0.0855,-0.1275,-0.123
06-26-2025 18:33:20.883,0.05612,-0.167384,0.986736,-0.315,-0.07,-0.385,0.087,-0.126,-0.126
06-26-2025 18:33:20.923,0.044896,-0.21228,1.002108,0.735,0.84,-0.315,0.0855,-0.1305,-0.126
06-26-2025 18:33:20.963,0.044164,-0.153964,0.979416,-0.21,1.085,0.35,0.0825,-0.12,-0.123
06-26-2025 18:33:21.003,0.012688,-0.216916,0.980636,0.945,-0.245,-0.14,0.087,-0.117,-0.12
06-26-2025 18:33:21.043,0.02806,-0.19276,1.011136,0.735,-0.175,0.7,0.0885,-0.1245,-0.123
06-26-2025 18:33:21.083,0.042212,-0.171776,0.964044,0.525,-0.28,-0.035,0.0855,-0.1245,-0.1215
06-26-2025 18:33:21.123,0.048312,-0.194956,0.986492,1.19,-0.28,-0.35,0.0825,-0.1305,-0.126
06-26-2025 18:33:21.163,0.060268,-0.158356,1.015284,0.525,-0.21,-0.35,0.0915,-0.129,-0.117
06-26-2025 18:33:21.203,0.058316,-0.181048,0.988688,-0.315,0.49,0.665,0.0885,-0.12,-0.1155
06-26-2025 18:33:21.243,0.047824,-0.20984,0.983808,1.645,0.875,1.575,0.0795,-0.126,-0.123
06-26-2025 18:33:21.283,0.001952,-0.147132,1.0065,0.805,-0.07,-0.91,0.09,-0.126,-0.1215
06-26-2025 18:33:21.323,0.028548,-0.201788,1.007476,-0.77,0.91,-1.68,0.0915,-0.12,-0.1335
06-26-2025 18:33:21.363,0.071736,-0.164944,0.953308,0.21,-0.42,-0.14,0.093,-0.1245,-0.1185
06-26-2025 18:33:21.403,0.03294,-0.18666,0.973316,1.785,-1.855,1.435,0.09,-0.126,-0.1215
06-26-2025 18:33:21.443,0.05734,-0.24156,1.0126,1.645,0.35,-0.49,0.093,-0.12,-0.12
06-26-2025 18:33:21.483,0.056608,-0.125904,0.965264,-0.35,1.435,-0.77,0.081,-0.1215,-0.1215
06-26-2025 18:33:21.523,0.03294,-0.155184,0.992348,1.575,0.455,3.15,0.096,-0.135,-0.1275
06-26-2025 18:33:21.563,0.002196,-0.186172,1.047736,1.505,-0.105,2.275,0.0825,-0.1245,-0.129
06-26-2025 18:33:21.603,0.030988,-0.136396,0.984296,-1.295,0.77,0.035,0.087,-0.123,-0.123
06-26-2025 18:33:21.643,0.029768,-0.196908,0.970388,-0.14,-0.175,-0.56,0.087,-0.1185,-0.1215
06-26-2025 18:33:21.683,0.023668,-0.174704,0.998448,0.875,-1.05,-0.525,0.0975,-0.1245,-0.135
06-26-2025 18:33:21.723,0.044652,-0.194224,0.987956,0.875,-0.14,-1.995,0.087,-0.12,-0.1275
06-26-2025 18:33:21.763,0.074176,-0.18666,0.967704,1.4,-0.14,-2.52,0.087,-0.1275,-0.1275
06-26-2025 18:33:21.803,0.061488,-0.172264,1.027728,0.77,0.315,-0.28,0.09,-0.1245,-0.126
06-26-2025 18:33:21.843,0.034404,-0.1586,0.992348,0.035,0.735,0.175,0.084,-0.129,-0.1245
06-26-2025 18:33:21.883,0.029768,-0.195444,0.96136,-0.875,0.63,-0.315,0.0855,-0.126,-0.123
06-26-2025 18:33:21.923,0.021472,-0.200568,1.03944,0.665,0.525,-0.28,0.09,-0.1245,-0.126
06-26-2025 18:33:21.963,0.006832,-0.173972,0.997716,0.98,0.245,-0.315,0.087,-0.1215,-0.1275
06-26-2025 18:33:22.003,0.042456,-0.161284,0.967704,-0.63,-0.98,0,0.0915,-0.126,-0.126
06-26-2025 18:33:22.043,0.069296,-0.19276,1.002352,-0.315,-1.085,0.455,0.093,-0.123,-0.1245
06-26-2025 18:33:22.083,0.053192,-0.210328,0.962092,1.54,0.21,-0.42,0.087,-0.1245,-0.129
06-26-2025 18:33:22.123,0.060024,-0.179096,0.946964,1.12,1.085,-1.61,0.09,-0.126,-0.129
06-26-2025 18:33:22.163,0.053192,-0.21228,1.008696,1.47,1.365,-1.575,0.0945,-0.1215,-0.114
06-26-2025 18:33:22.203,0.035136,-0.160552,1.011136,1.54,0.77,0.21,0.0915,-0.126,-0.1245
06-26-2025 18:33:22.243,0.029768,-0.18178,0.973072,0.7,-0.665,0.14,0.0855,-0.1245,-0.1275
06-26-2025 18:33:22.283,0.029768,-0.160308,0.998204,-1.82,0.175,1.575,0.09,-0.132,-0.117
06-26-2025 18:33:22.323,0.051728,-0.227408,1.004304,2.24,0.595,-0.245,0.09,-0.1215,-0.1185
06-26-2025 18:33:22.363,0.031964,-0.154696,0.936228,1.995,0.035,-0.98,0.081,-0.135,-0.1305
06-26-2025 18:33:22.403,0.088572,-0.149084,1.019676,1.61,0.035,0.77,0.0885,-0.129,-0.1275
06-26-2025 18:33:22.443,0.077104,-0.128588,1.039196,3.01,-1.05,0.07,0.087,-0.1275,-0.12
06-26-2025 18:33:22.483,0.02562,-0.136152,0.982832,-2.66,0.56,1.015,0.084,-0.1275,-0.1245
06-26-2025 18:33:22.523,0.063684,-0.236436,1.026264,-2.94,0.945,0,0.0915,-0.129,-0.1245
06-26-2025 18:33:22.563,0.008052,-0.199104,0.953308,-0.98,0.28,0.805,0.0885,-0.1245,-0.1245
06-26-2025 18:33:22.603,-0.007076,-0.260836,0.968192,0.98,1.12,1.785,0.0855,-0.123,-0.1305
06-26-2025 18:33:22.643,0.002928,-0.175924,0.995276,2.17,0.175,-1.12,0.084,-0.126,-0.1305
06-26-2025 18:33:22.683,0.002196,-0.1647,0.995764,1.4,0.63,-0.7,0.0945,-0.126,-0.129
06-26-2025 18:33:22.723,0.032452,-0.218868,1.008696,1.785,-1.47,0.315,0.084,-0.129,-0.117
06-26-2025 18:33:22.763,0.049776,-0.142252,0.98698,-1.19,-1.68,-1.19,0.09,-0.132,-0.1305
06-26-2025 18:33:22.803,0.080276,-0.2013,0.982832,-1.575,0.35,-1.75,0.0855,-0.1185,-0.126
06-26-2025 18:33:22.843,0.070272,-0.207644,0.930372,1.75,0.49,-2.8,0.081,-0.126,-0.1275
06-26-2025 18:33:22.883,0.021472,-0.170312,1.00894,2.17,0.98,-2.31,0.0945,-0.129,-0.123
06-26-2025 18:33:22.923,0.023912,-0.176168,1.017236,2.45,1.68,-2.03,0.081,-0.1215,-0.1215
06-26-2025 18:33:22.963,0.0122,-0.1464,0.985028,-0.21,-0.455,1.12,0.096,-0.1305,-0.138
06-26-2025 18:33:23.003,0.045384,-0.201544,0.986004,-1.54,-0.7,2.31,0.0915,-0.1275,-0.1245
06-26-2025 18:33:23.043,0.018056,-0.180316,0.965508,0.175,-0.945,0.42,0.0975,-0.126,-0.1245
06-26-2025 18:33:23.083,0.07905599,-0.199592,0.980636,1.47,0.945,-0.875,0.093,-0.132,-0.126
06-26-2025 18:33:23.123,0.065392,-0.138592,0.961604,3.535,0.175,-2.765,0.096,-0.1215,-0.1185
06-26-2025 18:33:23.163,0.022692,-0.127612,1.019188,1.435,-0.105,-0.665,0.0855,-0.129,-0.12
06-26-2025 18:33:23.203,0.06344,-0.1647,0.990884,0,0.175,0.14,0.099,-0.144,-0.1275
06-26-2025 18:33:23.243,0.02074,-0.193492,0.940132,-0.875,-1.015,0.91,0.093,-0.1215,-0.1305
06-26-2025 18:33:23.283,0.01342,-0.203984,0.987468,-0.7,-0.665,2.59,0.0915,-0.126,-0.1215
06-26-2025 18:33:23.323,0.017568,-0.21838,0.987712,3.255,-0.35,0.49,0.0915,-0.1305,-0.1185
06-26-2025 18:33:23.363,0.04758,-0.150792,1.042124,3.115,-0.91,0.665,0.0915,-0.1275,-0.1245
06-26-2025 18:33:23.403,0.049288,-0.153964,1.02724,2.345,-0.595,0.49,0.084,-0.126,-0.1215
06-26-2025 18:33:23.443,0.067832,-0.122244,1.03334,-1.225,-1.295,0.56,0.081,-0.1275,-0.1215
06-26-2025 18:33:23.483,0.081008,-0.19886,0.994056,-2.03,-0.385,0.035,0.084,-0.1215,-0.123
06-26-2025 18:33:23.523,0.085644,-0.203496,0.934276,-1.19,1.26,-1.015,0.084,-0.123,-0.1275
06-26-2025 18:33:23.563,0.056364,-0.245464,0.979904,1.47,2.345,-2.765,0.084,-0.1305,-0.123
06-26-2025 18:33:23.603,0.032452,-0.183488,1.00894,2.8,2.94,-1.855,0.084,-0.1215,-0.126
06-26-2025 18:33:23.643,0.013176,-0.150792,1.035536,1.715,1.68,0.91,0.09,-0.126,-0.1215
06-26-2025 18:33:23.683,-0.005856,-0.144692,1.032364,0.07,0.245,2.975,0.087,-0.126,-0.1275
06-26-2025 18:33:23.723,-0.01098,-0.132248,0.997228,-2.52,-0.21,3.535,0.087,-0.129,-0.1155
06-26-2025 18:33:23.763,-0.00854,-0.206912,0.958676,-1.75,-0.525,1.085,0.081,-0.1335,-0.1125
06-26-2025 18:33:23.803,0.003416,-0.206912,0.938912,0.735,-0.315,-1.47,0.09,-0.126,-0.1185
06-26-2025 18:33:23.843,0.043432,-0.155428,0.937692,2.31,-0.56,-3.78,0.084,-0.129,-0.126
06-26-2025 18:33:23.883,0.0427,-0.18788,0.9699,2.765,-1.295,-4.935,0.084,-0.132,-0.117
06-26-2025 18:33:23.923,0.084424,-0.158112,0.990884,1.33,-1.19,-3.815,0.0885,-0.1305,-0.1275
06-26-2025 18:33:23.963,0.08906,-0.161528,0.976976,0.455,-0.21,-0.735,0.0885,-0.1305,-0.1275
06-26-2025 18:33:24.003,0.083448,-0.2074,0.999424,1.19,0.945,1.19,0.0855,-0.123,-0.1365
06-26-2025 18:33:24.043,0.046604,-0.185684,1.011624,0.98,1.89,1.925,0.09,-0.132,-0.1335
06-26-2025 18:33:24.083,0.01952,-0.16836,1.002108,0.91,2.1,1.925,0.087,-0.129,-0.1155
06-26-2025 18:33:24.123,0.00244,-0.148108,0.993568,1.015,0.455,1.015,0.0945,-0.129,-0.1275
06-26-2025 18:33:24.163,0.005856,-0.16714,1.012844,0.175,-0.77,0.35,0.096,-0.1305,-0.126
06-26-2025 18:33:24.203,0.048068,-0.190564,0.978196,-0.28,-0.91,-2.135,0.096,-0.1305,-0.126
06-26-2025 18:33:24.243,0.081008,-0.1891,0.975756,1.155,-0.77,-3.22,0.093,-0.132,-0.126
