Column1,Column2,Column3,Column4,Column5,Column6,Column7,Column8,Column9,Column10
SerialNumber: DCB535485BF5-6D2D,,,,,,,,,
time,ax,ay,az,gx,gy,gz,mx,my,mz
,,,,,,,,,
06-26-2025 19:26:25.327,-0.000976,-0.000976,1.000156,0,0.035,-0.035,-0.003,-0.1065,-0.0825
06-26-2025 19:26:25.367,0.002684,-0.00244,0.998936,0,0.035,0,0,-0.1125,-0.0765
06-26-2025 19:26:25.407,0.00122,-0.00244,1.00162,0,0.035,-0.035,-0.0015,-0.102,-0.0855
06-26-2025 19:26:25.447,0.000976,-0.000244,0.997472,0,0.035,-0.035,-0.0015,-0.1065,-0.09
06-26-2025 19:26:25.487,0.003172,-0.00366,0.997716,0.035,0,-0.035,0.006,-0.1065,-0.09
06-26-2025 19:26:25.527,0.000976,-0.003416,1.001376,0.07,0.035,-0.035,0.0045,-0.1155,-0.0825
06-26-2025 19:26:25.567,0.001464,-0.000976,0.99918,0,0,0.07,0,-0.1035,-0.093
06-26-2025 19:26:25.607,-0.00122,-0.000976,1.002352,0.035,0.035,0,0,-0.1095,-0.09
06-26-2025 19:26:25.647,0.003904,0.000732,1.00284,0,0.035,-0.07,0.0015,-0.1035,-0.093
06-26-2025 19:26:25.687,-0.000488,-0.005612,0.997228,-0.035,0.035,-0.035,0.0075,-0.114,-0.081
06-26-2025 19:26:25.727,-0.001708,0.001952,0.99918,0,0.035,-0.035,0.006,-0.108,-0.075
06-26-2025 19:26:25.767,-0.001708,-0.000488,0.995764,0,0.035,-0.035,0.0015,-0.114,-0.087
06-26-2025 19:26:25.807,0.00122,-0.003904,1.00162,0.035,0.035,-0.035,0,-0.108,-0.0735
06-26-2025 19:26:25.847,0.002684,-0.003416,1.00406,0.035,0.035,-0.035,-0.003,-0.108,-0.0855
06-26-2025 19:26:25.887,-0.000488,0.000976,0.997472,0.035,0.035,0,0,-0.1065,-0.0855
06-26-2025 19:26:25.927,-0.000976,-0.003172,0.998692,0.035,0.035,0.035,-0.006,-0.1035,-0.084
06-26-2025 19:26:25.967,0.00488,-0.003416,1.002352,0.035,0.035,-0.035,0.0045,-0.1125,-0.0855
06-26-2025 19:26:26.007,-0.00244,-0.000976,1.000888,0,0.035,0,0,-0.105,-0.084
06-26-2025 19:26:26.047,0.003416,0.00122,0.997472,0,0,-0.035,0.003,-0.1125,-0.0825
06-26-2025 19:26:26.087,-0.005368,0.000244,0.99918,0,0,0,-0.0045,-0.117,-0.087
06-26-2025 19:26:26.127,-0.000732,0.000244,0.996252,0,0.035,-0.035,0.0015,-0.111,-0.09
06-26-2025 19:26:26.167,-0.00366,-0.005124,1.004304,0.07,0.035,0,-0.003,-0.1095,-0.09
06-26-2025 19:26:26.207,-0.00488,-0.003904,1.002108,0.035,0.035,-0.035,-0.0015,-0.1095,-0.0825
06-26-2025 19:26:26.247,-0.000244,-0.001464,0.998204,0.035,0.07,-0.035,0.003,-0.111,-0.0825
06-26-2025 19:26:26.287,0.00244,-0.00122,0.995764,0.035,0.035,-0.07,-0.0015,-0.1155,-0.0795
06-26-2025 19:26:26.327,-0.006588,-0.005612,1.000888,0.035,0,0,0,-0.105,-0.087
06-26-2025 19:26:26.367,-0.00244,-0.000976,0.997228,0,0.07,0,-0.003,-0.1005,-0.0945
06-26-2025 19:26:26.407,0.001708,-0.00244,1.001132,0,0,0.035,0.003,-0.1065,-0.081
06-26-2025 19:26:26.447,-0.000976,-0.002928,0.999912,0.035,0.035,-0.035,0.003,-0.1095,-0.0765
06-26-2025 19:26:26.487,-0.001464,-0.002684,0.996984,0.035,0.07,-0.07,0,-0.1035,-0.093
06-26-2025 19:26:26.527,0.003416,0.000732,1.000888,0.035,0.035,-0.07,0,-0.1155,-0.0825
06-26-2025 19:26:26.567,-0.001464,-0.00488,1.0004,0,0.035,0,0,-0.102,-0.084
06-26-2025 19:26:26.607,0.002196,-0.002196,0.998692,0,0.07,-0.035,0.0015,-0.102,-0.087
06-26-2025 19:26:26.647,-0.004636,-0.001952,0.999912,0,0.035,-0.035,0,-0.105,-0.0885
06-26-2025 19:26:26.687,0.005856,-0.00244,0.99674,0.035,0.035,0,0,-0.102,-0.09
06-26-2025 19:26:26.727,0.000732,0.00122,0.996984,0.035,0,0,-0.0015,-0.1035,-0.078
06-26-2025 19:26:26.767,0.00122,0,1.00162,0.035,0.035,0,0,-0.108,-0.0915
06-26-2025 19:26:26.807,-0.001464,-0.001952,1.00162,0,0.035,0,0,-0.1095,-0.0855
06-26-2025 19:26:26.847,-0.00122,-0.002196,0.998936,0.035,0.035,-0.035,0.006,-0.1125,-0.0795
06-26-2025 19:26:26.887,-0.003172,0.002928,0.998692,0.035,0.035,0,0.0015,-0.1155,-0.084
06-26-2025 19:26:26.927,-0.001952,-0.003416,0.99918,0,0,-0.035,0,-0.1095,-0.081
06-26-2025 19:26:26.967,-0.002684,-0.00122,1.002596,0,0.035,-0.035,-0.006,-0.114,-0.081
06-26-2025 19:26:27.007,0.000732,0.00122,1.002108,0.035,0.035,-0.07,0.012,-0.105,-0.087
06-26-2025 19:26:27.047,0.00366,-0.000244,1.000888,0,0,-0.07,0.006,-0.108,-0.087
06-26-2025 19:26:27.087,-0.002928,-0.002684,0.998936,0,0.035,-0.07,-0.009,-0.1155,-0.084
06-26-2025 19:26:27.127,0.002196,-0.001708,1.002596,0.035,0.035,-0.07,0.0015,-0.1065,-0.087
06-26-2025 19:26:27.167,-0.002196,0.003416,1.002352,0.035,0.035,-0.035,0.003,-0.1065,-0.087
06-26-2025 19:26:27.207,-0.000488,-0.002196,0.999912,0.035,0,0,-0.0015,-0.111,-0.0855
06-26-2025 19:26:27.247,-0.002928,-0.000976,1.002596,0,0.035,-0.035,0.003,-0.105,-0.0885
06-26-2025 19:26:27.287,0.000244,-0.00732,1.003084,0,0,-0.035,0,-0.111,-0.0795
06-26-2025 19:26:27.327,0,-0.000488,0.996984,0,0,0,0.006,-0.1035,-0.0825
06-26-2025 19:26:27.367,0.00244,0.00366,1.00284,0,0,0,0,-0.1035,-0.081
06-26-2025 19:26:27.407,-0.000976,0.003172,0.999424,0,0.035,-0.035,0.006,-0.1125,-0.078
06-26-2025 19:26:27.447,-0.00488,-0.004148,0.99796,0,0.07,-0.035,0.006,-0.111,-0.087
06-26-2025 19:26:27.487,-0.002928,-0.00244,1.000888,0,0.035,-0.035,-0.0015,-0.1035,-0.078
06-26-2025 19:26:27.527,-0.003904,-0.005368,0.997228,0.035,0.035,0,0.0045,-0.105,-0.0795
06-26-2025 19:26:27.567,0.00122,-0.004148,0.999424,0,0.035,-0.035,0.003,-0.105,-0.0795
06-26-2025 19:26:27.607,0.000488,-0.001708,1.001864,-0.035,0.035,-0.035,0.006,-0.1125,-0.087
06-26-2025 19:26:27.647,-0.000976,0.000976,0.999668,0.035,0.035,-0.035,0,-0.1065,-0.0885
06-26-2025 19:26:27.687,-0.003416,-0.002196,0.999424,0.035,0.035,-0.035,-0.003,-0.105,-0.0885
06-26-2025 19:26:27.727,-0.001708,-0.000732,1.001132,0,0.035,-0.035,0.003,-0.111,-0.0795
06-26-2025 19:26:27.767,-0.000488,0.00244,0.998692,0,0.07,-0.035,0.003,-0.099,-0.0885
06-26-2025 19:26:27.807,-0.003416,-0.001464,0.998692,0,0.035,-0.035,0.0015,-0.108,-0.0825
06-26-2025 19:26:27.847,0.000244,0.00122,0.999912,0,0.035,-0.035,0,-0.105,-0.0825
06-26-2025 19:26:27.887,0.000976,-0.001464,1.00162,0.035,0.035,-0.035,0.003,-0.1125,-0.084
06-26-2025 19:26:27.927,-0.000488,0.000732,0.997472,0,0.035,-0.035,0.006,-0.1125,-0.084
06-26-2025 19:26:27.967,0.002196,-0.001952,0.999424,0,0.035,-0.035,0,-0.1095,-0.084
06-26-2025 19:26:28.007,0.000732,-0.001464,1.002352,0.035,0.035,-0.035,0.003,-0.096,-0.0915
06-26-2025 19:26:28.047,-0.00122,0.002928,1.001376,0,0.07,-0.035,0.0015,-0.0975,-0.0855
06-26-2025 19:26:28.087,-0.00366,0.001464,0.997228,0.035,0.035,-0.035,0.0015,-0.108,-0.081
06-26-2025 19:26:28.127,0.002928,-0.002196,1.001864,0.035,0.035,0,0.0015,-0.108,-0.0765
06-26-2025 19:26:28.167,0.000976,-0.000976,0.999668,0,0.035,-0.035,0.0015,-0.108,-0.0765
06-26-2025 19:26:28.207,-0.000244,0.000732,0.999668,0,0.035,-0.035,-0.003,-0.1185,-0.084
06-26-2025 19:26:28.247,-0.004392,-0.001952,0.999424,-0.105,0.035,0.035,-0.003,-0.105,-0.0855
06-26-2025 19:26:28.287,0.005124,-0.0061,0.99918,-0.07,0,-0.105,-0.0015,-0.1065,-0.084
06-26-2025 19:26:28.327,0.012688,-0.0366,1.023092,-0.175,0.07,0.07,0.003,-0.108,-0.0735
06-26-2025 19:26:28.367,-0.00366,-0.013664,1.006988,0,0.035,-0.28,0,-0.1065,-0.0795
06-26-2025 19:26:28.407,-0.000732,-0.04148,1.012112,0.07,-0.07,-0.105,-0.0015,-0.1155,-0.0795
06-26-2025 19:26:28.447,0.00366,0.019032,0.995032,0,0.105,0.42,0,-0.111,-0.072
06-26-2025 19:26:28.487,0.007076,0.001708,1.007232,0.42,0,0.21,-0.0045,-0.1005,-0.084
06-26-2025 19:26:28.527,0.00366,0.016836,0.98698,0.42,0.14,-0.175,0.0045,-0.1125,-0.0795
06-26-2025 19:26:28.567,-0.007564,0.017568,0.992836,-0.14,0.035,-0.245,0.0045,-0.1095,-0.0855
06-26-2025 19:26:28.607,-0.00732,0.00122,1.0065,-0.56,-0.14,-0.49,0.003,-0.1035,-0.0825
06-26-2025 19:26:28.647,0.00366,-0.004148,1.002352,-1.4,-0.035,0.63,0.003,-0.1035,-0.0825
06-26-2025 19:26:28.687,-0.005124,-0.019032,1.008452,-1.155,-0.035,1.085,0,-0.1065,-0.0825
06-26-2025 19:26:28.727,0.005368,-0.007076,0.996252,-0.525,-0.105,0.49,-0.0015,-0.105,-0.0735
06-26-2025 19:26:28.767,0.0183,-0.002928,0.996984,0.105,0,0.175,0,-0.111,-0.0825
06-26-2025 19:26:28.807,-0.002196,0.004148,0.997228,-0.35,-0.035,-0.595,0,-0.1065,-0.078
06-26-2025 19:26:28.847,-0.0061,-0.011224,0.99796,-1.47,0.105,-0.245,0.003,-0.102,-0.0825
06-26-2025 19:26:28.887,-0.003416,-0.0366,1.02114,-0.035,-0.035,-0.7,0,-0.1065,-0.075
06-26-2025 19:26:28.927,-0.015372,-0.003172,1.001376,0.875,0.035,0.42,0,-0.108,-0.081
06-26-2025 19:26:28.967,0.004636,-0.010492,0.981612,0.28,0.035,0.035,0,-0.1005,-0.0765
06-26-2025 19:26:29.007,0.017812,-0.005612,0.999912,0.07,0.175,1.785,0,-0.105,-0.075
06-26-2025 19:26:29.047,-0.011468,0.000244,1.010404,-0.07,-0.105,-0.385,0.003,-0.111,-0.0795
06-26-2025 19:26:29.087,0.026108,0.03904,1.013332,-0.525,-0.14,-0.315,-0.0015,-0.1035,-0.078
06-26-2025 19:26:29.127,-0.007808,-0.010492,1.011136,-1.925,-0.245,-0.245,0,-0.1005,-0.084
06-26-2025 19:26:29.167,-0.029768,-0.022692,1.034804,-2.24,-0.07,1.225,-0.0015,-0.1035,-0.0795
06-26-2025 19:26:29.207,-0.066856,0.05612,1.001132,-2.065,-0.805,-0.665,0.006,-0.0975,-0.0885
06-26-2025 19:26:29.247,0.03294,-0.010736,0.990152,-2.485,0.455,1.575,-0.006,-0.099,-0.0825
06-26-2025 19:26:29.287,-0.005612,-0.065148,1.0187,-4.13,-0.91,1.715,0.0015,-0.1005,-0.081
06-26-2025 19:26:29.327,-0.042456,0.03538,0.97966,-5.775,0,3.08,-0.0015,-0.1035,-0.081
06-26-2025 19:26:29.367,-0.016348,-0.003904,1.038708,-6.44,-0.28,2.905,0.0015,-0.0945,-0.0795
06-26-2025 19:26:29.407,-0.026596,-0.029036,0.987712,-7.595,-1.05,2.135,-0.003,-0.087,-0.081
06-26-2025 19:26:29.447,0.024156,-0.042456,1.00284,-7.91,-0.42,4.795,0,-0.087,-0.09
06-26-2025 19:26:29.487,0.008052,-0.061732,1.007232,-8.96,-0.7,6.23,0,-0.0975,-0.0885
06-26-2025 19:26:29.527,-0.015616,-0.055876,1.003328,-7.525,-0.28,5.39,-0.0045,-0.0855,-0.0825
06-26-2025 19:26:29.567,-0.025132,-0.046604,1.0248,-6.755,-0.595,4.13,0.0015,-0.09,-0.0795
06-26-2025 19:26:29.607,0.020984,-0.105652,1.00162,-5.215,-0.07,2.975,0.0015,-0.0855,-0.084
06-26-2025 19:26:29.647,0.02806,-0.06222,1.006744,-4.935,-0.665,4.97,0,-0.0855,-0.081
06-26-2025 19:26:29.687,-0.005368,-0.023912,0.990396,-6.755,0.07,6.055,0,-0.084,-0.0945
06-26-2025 19:26:29.727,-0.030256,-0.047336,1.0431,-6.58,-0.735,4.55,-0.012,-0.0855,-0.087
06-26-2025 19:26:29.767,0.0061,-0.05734,0.98576,-7.42,-0.28,4.025,-0.0015,-0.081,-0.0975
06-26-2025 19:26:29.807,0.028304,-0.086376,0.990396,-8.68,-0.665,5.18,-0.018,-0.069,-0.0885
06-26-2025 19:26:29.847,0.00488,-0.07808,1.02602,-8.61,-0.56,6.51,-0.0105,-0.0765,-0.096
06-26-2025 19:26:29.887,0.001464,-0.073688,0.99308,-8.4,-0.525,5.11,-0.012,-0.069,-0.099
06-26-2025 19:26:29.927,0.027328,-0.082716,1.029924,-8.925,-0.595,4.095,-0.0105,-0.0705,-0.096
06-26-2025 19:26:29.967,0.178364,0.009028,1.10654,-9.38,-0.98,4.725,-0.0075,-0.0645,-0.093
06-26-2025 19:26:30.007,0.084668,-0.055144,1.047736,-10.71,-1.995,5.215,-0.0135,-0.0525,-0.0975
06-26-2025 19:26:30.047,0.062708,-0.066124,1.026264,-9.345,-0.315,2.8,-0.009,-0.063,-0.0945
06-26-2025 19:26:30.087,-0.014884,-0.078568,1.012112,-9.205,-0.42,-2.485,0,-0.0585,-0.099
06-26-2025 19:26:30.127,0.04636,-0.180072,0.996252,-9.135,-1.33,-3.395,-0.009,-0.0525,-0.0945
06-26-2025 19:26:30.167,0.050996,-0.146644,1.012356,-10.395,-0.63,0.07,-0.015,-0.057,-0.1005
06-26-2025 19:26:30.207,0.004148,-0.152012,1.015772,-10.395,-1.225,3.115,-0.0135,-0.051,-0.105
06-26-2025 19:26:30.247,-0.018788,-0.208376,1.017724,-7.805,-0.21,-0.455,-0.006,-0.048,-0.1005
06-26-2025 19:26:30.287,-0.008052,-0.16714,1.025288,-6.335,-1.05,-2.835,-0.0015,-0.0525,-0.102
06-26-2025 19:26:30.327,0.026596,-0.178364,0.98088,-6.51,-0.245,0.735,-0.0105,-0.051,-0.1005
06-26-2025 19:26:30.367,-0.025132,-0.168116,1.036024,-7.105,-0.77,3.08,-0.0165,-0.054,-0.1005
06-26-2025 19:26:30.407,-0.018056,-0.188124,1.02114,-6.265,-0.35,2.24,-0.0045,-0.0435,-0.111
06-26-2025 19:26:30.447,-0.007564,-0.16104,0.956236,-5.11,-0.7,0.35,-0.0045,-0.0435,-0.1005
06-26-2025 19:26:30.487,0.044164,-0.296704,1.044564,-5.32,-0.77,1.715,-0.012,-0.0345,-0.1005
06-26-2025 19:26:30.527,-0.005612,-0.106628,0.940864,-6.02,0.035,2.555,-0.0195,-0.045,-0.1035
06-26-2025 19:26:30.567,0.05612,-0.213256,1.07848,-0.91,0.105,0.595,-0.015,-0.0345,-0.0975
06-26-2025 19:26:30.607,0.016104,-0.212768,0.960628,1.47,0.105,-1.4,-0.012,-0.039,-0.1065
06-26-2025 19:26:30.647,0.07905599,-0.183488,1.061644,1.19,-0.14,-1.12,-0.0015,-0.039,-0.105
06-26-2025 19:26:30.687,0.039528,-0.112972,0.95404,0.245,0.525,0.525,-0.0105,-0.0405,-0.096
06-26-2025 19:26:30.727,0.02806,-0.139812,1.071404,-0.945,-0.35,0.035,-0.0075,-0.048,-0.102
06-26-2025 19:26:30.767,0.01342,-0.169336,0.96868,-1.295,0.28,-3.465,-0.015,-0.0465,-0.1005
06-26-2025 19:26:30.807,0.040992,-0.20252,1.025532,-0.315,-0.14,-4.76,-0.0045,-0.0465,-0.099
06-26-2025 19:26:30.847,0.034648,-0.243024,0.959896,0.875,0.56,-3.22,-0.0135,-0.0375,-0.099
06-26-2025 19:26:30.887,0.022936,-0.149328,1.049932,0.77,-0.315,-2.59,-0.012,-0.048,-0.111
06-26-2025 19:26:30.927,0.011956,-0.16714,0.986004,2.24,1.19,-3.325,-0.012,-0.042,-0.1005
06-26-2025 19:26:30.967,0.00488,-0.153964,1.016992,1.82,-0.455,-3.395,-0.006,-0.042,-0.105
06-26-2025 19:26:31.007,0.2623,-0.251808,1.103368,2.485,0.63,-2.73,-0.003,-0.0465,-0.0945
06-26-2025 19:26:31.047,-0.059536,-0.049288,1.009184,-4.13,0.21,-1.89,-0.009,-0.039,-0.1035
06-26-2025 19:26:31.087,-0.006588,-0.288408,1.064816,1.855,0.105,-4.375,0,-0.045,-0.1005
06-26-2025 19:26:31.127,0.0061,-0.258884,0.9638,3.5,0.14,-1.925,-0.006,-0.045,-0.1065
06-26-2025 19:26:31.167,-0.023668,-0.102236,1.03578,-2.415,0.07,0.35,-0.003,-0.0435,-0.0975
06-26-2025 19:26:31.207,-0.033184,-0.229116,1.052372,1.26,0,-0.35,-0.0045,-0.0435,-0.099
06-26-2025 19:26:31.247,-0.020984,-0.196908,0.97478,1.19,0.14,-0.77,-0.0015,-0.0435,-0.1005
06-26-2025 19:26:31.287,0.01342,-0.111752,1.055056,-1.295,-0.245,0.805,-0.006,-0.0465,-0.0975
06-26-2025 19:26:31.327,-0.011712,-0.157868,0.977708,-1.785,0.455,3.29,-0.0075,-0.051,-0.099
06-26-2025 19:26:31.367,-0.011468,-0.231068,1.056764,-1.05,-0.7,2.1,-0.006,-0.0465,-0.1065
06-26-2025 19:26:31.407,-0.001952,-0.121268,0.988932,-2.38,0.595,1.05,-0.0135,-0.045,-0.096
06-26-2025 19:26:31.447,0.042212,-0.245464,1.01992,-0.805,-0.28,1.015,-0.0045,-0.0465,-0.1035
06-26-2025 19:26:31.487,0.021472,-0.154452,1.013576,-0.91,0.21,3.115,-0.0165,-0.0435,-0.108
06-26-2025 19:26:31.527,0.019032,-0.170312,1.003084,-0.735,0,1.085,-0.006,-0.0435,-0.102
06-26-2025 19:26:31.567,0.036844,-0.223748,1.030656,1.47,0.385,-1.12,-0.0105,-0.0435,-0.105
06-26-2025 19:26:31.607,0.028304,-0.216428,0.987956,2.765,0.105,0.14,-0.0135,-0.045,-0.108
06-26-2025 19:26:31.647,0.040504,-0.222528,1.009184,3.43,0.77,1.645,-0.0075,-0.0525,-0.105
06-26-2025 19:26:31.687,-0.014884,-0.194468,1.028704,5.81,0.42,0.07,-0.0135,-0.045,-0.0975
06-26-2025 19:26:31.727,0.03538,-0.177144,0.999668,7.7,0.77,-2.345,-0.009,-0.0495,-0.093
06-26-2025 19:26:31.767,0.032696,-0.149084,1.018944,5.81,0.14,-0.525,-0.0075,-0.0525,-0.102
06-26-2025 19:26:31.807,0.02318,-0.188124,1.002596,5.495,0.21,4.095,-0.003,-0.0495,-0.1005
06-26-2025 19:26:31.847,-0.006588,-0.153964,0.997716,4.83,0.105,3.85,-0.0045,-0.0465,-0.1035
06-26-2025 19:26:31.887,-0.028548,-0.126392,1.048712,6.265,0.35,1.33,-0.009,-0.045,-0.0945
06-26-2025 19:26:31.927,0.02074,-0.16226,0.996984,8.82,0.7,-2.065,-0.0045,-0.0525,-0.102
06-26-2025 19:26:31.967,0.08418,-0.108092,1.042612,6.965,0.385,-1.19,-0.009,-0.054,-0.096
06-26-2025 19:26:32.007,0.042456,-0.042456,0.981124,3.535,0.595,3.57,-0.003,-0.0525,-0.1005
06-26-2025 19:26:32.047,-0.033672,-0.110776,1.058716,1.05,-0.665,1.68,-0.0045,-0.054,-0.0975
06-26-2025 19:26:32.087,0.022692,-0.072224,1.038952,0.945,0.7,-2.03,0.0015,-0.048,-0.09
06-26-2025 19:26:32.127,0.034892,-0.100528,0.95892,-0.595,-0.28,-2.695,0,-0.048,-0.1035
06-26-2025 19:26:32.167,0.09076799,-0.184952,1.033584,1.365,0.21,-2.835,-0.006,-0.0555,-0.099
06-26-2025 19:26:32.207,0.107604,-0.076616,1.000644,-0.42,-0.07,-2.59,-0.009,-0.048,-0.093
06-26-2025 19:26:32.247,0.007564,-0.1159,1.033828,0,-0.21,-2.415,0,-0.057,-0.1035
06-26-2025 19:26:32.287,0.012444,-0.165676,0.980636,1.995,0.175,-3.885,0,-0.051,-0.1065
06-26-2025 19:26:32.327,0.029768,-0.082716,1.050664,-0.14,-0.14,-5.39,-0.0075,-0.06,-0.105
06-26-2025 19:26:32.367,0.00122,-0.124196,0.9943,1.715,-0.315,-3.885,-0.0105,-0.06,-0.105
06-26-2025 19:26:32.407,0.030988,-0.13298,1.002596,-0.245,0.07,-4.585,-0.009,-0.075,-0.0975
06-26-2025 19:26:32.447,-0.007808,-0.11956,1.041148,-1.015,-0.315,-2.555,-0.006,-0.057,-0.1005
06-26-2025 19:26:32.487,0.006344,-0.189832,0.96746,-0.105,0.385,-1.26,-0.003,-0.0615,-0.1035
06-26-2025 19:26:32.527,0.0122,-0.15982,1.052128,1.645,0.315,-1.61,-0.006,-0.0615,-0.0945
06-26-2025 19:26:32.567,-0.010492,-0.124684,0.995764,4.97,1.155,-3.64,-0.0075,-0.06,-0.0945
06-26-2025 19:26:32.607,0.016348,-0.154452,1.008696,7.105,1.015,-8.995,-0.009,-0.057,-0.0975
06-26-2025 19:26:32.647,0.030012,-0.099064,1.020408,10.045,1.365,-9.31,-0.0045,-0.072,-0.0975
06-26-2025 19:26:32.687,-0.000732,-0.07808,0.98698,7.63,1.015,-8.54,0,-0.0705,-0.096
06-26-2025 19:26:32.727,0.009516,-0.078568,1.040416,8.645,1.295,-8.155,0,-0.0645,-0.108
06-26-2025 19:26:32.767,-0.005856,-0.061732,1.02846,5.53,0.77,-7.35,0,-0.0645,-0.108
06-26-2025 19:26:32.807,0.020496,-0.054412,1.015772,5.145,1.26,-8.19,-0.006,-0.0765,-0.1035
06-26-2025 19:26:32.847,0.019032,-0.095404,0.993568,3.045,0.455,-6.58,-0.0015,-0.0795,-0.096
06-26-2025 19:26:32.887,-0.007076,-0.0671,1.035292,2.275,0.42,-5.285,0.0075,-0.087,-0.09
06-26-2025 19:26:32.927,-0.020496,-0.083692,1.01504,0.805,-0.14,-4.69,0.003,-0.084,-0.0885
06-26-2025 19:26:32.967,0.005856,-0.073688,1.016748,0.455,0.28,-4.935,0.0045,-0.0885,-0.0975
06-26-2025 19:26:33.007,-0.042456,-0.127612,1.024556,-0.21,-0.455,-3.15,0.003,-0.0825,-0.0915
06-26-2025 19:26:33.047,-0.043432,-0.074664,1.020408,-0.63,-0.07,-2.345,-0.003,-0.0915,-0.093
06-26-2025 19:26:33.087,-0.022204,-0.129076,1.013332,-0.77,-0.175,-2.1,0.0015,-0.084,-0.096
06-26-2025 19:26:33.127,-0.02562,-0.083692,1.025532,-1.505,-0.175,-0.735,0.009,-0.075,-0.096
06-26-2025 19:26:33.167,-0.001708,-0.13054,1.040416,-1.715,-0.385,-0.28,-0.003,-0.0915,-0.0915
06-26-2025 19:26:33.207,0.024888,-0.11224,1.056032,-2.135,-1.61,-1.75,0.006,-0.087,-0.093
06-26-2025 19:26:33.247,0.066612,-0.121024,1.111664,-1.75,-5.355,-4.9,0.0045,-0.0885,-0.1005
06-26-2025 19:26:33.287,0.08686399,-0.130052,1.063596,-1.82,-8.26,-6.125,0,-0.081,-0.093
06-26-2025 19:26:33.327,0.13054,-0.132492,1.078724,-6.545,-12.32,-6.195,-0.003,-0.0885,-0.0975
06-26-2025 19:26:33.367,0.182756,-0.175192,1.057496,-9.345,-14.77,-6.58,0,-0.084,-0.09
06-26-2025 19:26:33.407,0.172752,-0.160308,1.053104,-10.85,-14.98,-5.285,0,-0.0885,-0.0915
06-26-2025 19:26:33.447,0.16104,-0.163724,1.058716,-10.78,-14.035,-5.845,-0.0075,-0.0795,-0.081
06-26-2025 19:26:33.487,0.18056,-0.1891,1.075552,-13.405,-12.285,-6.545,-0.009,-0.081,-0.087
06-26-2025 19:26:33.527,0.154452,-0.148352,1.064328,-11.795,-10.15,-9.1,-0.0135,-0.0765,-0.0795
06-26-2025 19:26:33.567,0.148596,-0.171532,1.04188,-14.875,-8.995,-10.815,-0.0195,-0.075,-0.0915
06-26-2025 19:26:33.607,0.108824,-0.148596,1.0248,-14.35,-7.98,-13.895,-0.018,-0.0795,-0.0885
06-26-2025 19:26:33.647,0.110288,-0.172508,0.99064,-17.045,-7.735,-16.205,-0.0075,-0.072,-0.0915
06-26-2025 19:26:33.687,0.111508,-0.150792,0.984296,-18.235,-7.385,-18.76,-0.015,-0.0795,-0.087
06-26-2025 19:26:33.727,0.1098,-0.173484,0.9455,-17.15,-5.845,-22.085,-0.018,-0.072,-0.096
06-26-2025 19:26:33.767,0.11834,-0.169092,0.951356,-15.4,-4.375,-25.025,-0.012,-0.0795,-0.096
06-26-2025 19:26:33.807,0.09638,-0.170068,0.930616,-14.735,-2.625,-26.915,-0.012,-0.066,-0.0945
06-26-2025 19:26:33.847,0.117364,-0.16104,0.94306,-13.72,-1.925,-29.33,-0.0045,-0.075,-0.096
06-26-2025 19:26:33.887,0.088084,-0.144692,0.954528,-15.435,-1.085,-29.82,-0.009,-0.0765,-0.093
06-26-2025 19:26:33.927,0.10126,-0.167384,0.96868,-13.615,-0.42,-31.745,-0.006,-0.075,-0.096
06-26-2025 19:26:33.967,0.1098,-0.169336,0.983564,-13.895,1.225,-32.515,0.0015,-0.0675,-0.0975
06-26-2025 19:26:34.007,0.10858,-0.133224,0.987956,-12.53,2.52,-33.425,0.0045,-0.0765,-0.1095
06-26-2025 19:26:34.047,0.07686,-0.188124,1.025776,-10.675,2.8,-34.79,0.009,-0.084,-0.1095
06-26-2025 19:26:34.087,0.05856,-0.114192,1.033096,-10.5,3.08,-35.315,0.009,-0.081,-0.1095
06-26-2025 19:26:34.127,0.055876,-0.166164,1.023336,-12.705,2.695,-36.82,0.0225,-0.078,-0.111
06-26-2025 19:26:34.167,0.037576,-0.120048,1.04432,-15.855,2.87,-37.17,0.0165,-0.081,-0.117
06-26-2025 19:26:34.207,0.036844,-0.205204,1.049688,-14.735,4.9,-38.535,0.03,-0.087,-0.1185
06-26-2025 19:26:34.247,0.007564,-0.126636,1.030656,-13.37,7.63,-38.465,0.0405,-0.078,-0.12
06-26-2025 19:26:34.287,0.013176,-0.191784,1.0431,-11.97,10.255,-39.095,0.045,-0.0945,-0.123
06-26-2025 19:26:34.327,-0.020252,-0.12932,1.05286,-10.955,13.055,-38.71,0.042,-0.093,-0.1245
06-26-2025 19:26:34.367,-0.028548,-0.201544,1.046516,-7.945,15.295,-39.795,0.06,-0.09,-0.129
06-26-2025 19:26:34.407,-0.056364,-0.13908,1.031876,-5.88,17.955,-39.725,0.063,-0.1035,-0.129
06-26-2025 19:26:34.447,-0.04514,-0.183976,1.0431,-4.025,19.845,-41.23,0.069,-0.093,-0.1245
06-26-2025 19:26:34.487,-0.012932,-0.148596,1.221464,-2.31,21.665,-41.265,0.084,-0.111,-0.138
06-26-2025 19:26:34.527,-0.063684,-0.1464,0.998204,0.49,22.855,-41.86,0.0915,-0.099,-0.1485
06-26-2025 19:26:34.567,-0.097844,-0.230336,1.025776,-0.21,23.695,-40.425,0.1125,-0.102,-0.15
06-26-2025 19:26:34.607,-0.133468,-0.164456,1.075552,2.45,23.345,-40.53,0.12,-0.1005,-0.153
06-26-2025 19:26:34.647,-0.142252,-0.20496,1.061156,0.28,22.26,-37.765,0.1305,-0.1005,-0.15
06-26-2025 19:26:34.687,-0.13054,-0.203496,1.002108,5.285,20.44,-38.01,0.1335,-0.111,-0.1545
06-26-2025 19:26:34.727,-0.116876,-0.21106,0.987224,2.31,19.6,-35.175,0.1515,-0.1095,-0.1575
06-26-2025 19:26:34.767,-0.15006,-0.199348,1.0065,6.335,18.76,-36.26,0.162,-0.111,-0.159
06-26-2025 19:26:34.807,-0.145668,-0.162016,1.040904,1.33,15.89,-33.6,0.159,-0.117,-0.159
06-26-2025 19:26:34.847,-0.135664,-0.189344,1.020652,1.68,13.86,-32.935,0.174,-0.1215,-0.168
06-26-2025 19:26:34.887,-0.153232,-0.147864,1.01992,-0.735,10.745,-29.75,0.1755,-0.123,-0.171
06-26-2025 19:26:34.927,-0.137616,-0.179584,1.041636,-0.49,7.14,-26.425,0.189,-0.117,-0.162
06-26-2025 19:26:34.967,-0.13786,-0.17934,1.039684,1.82,4.865,-23.94,0.1965,-0.12,-0.156
06-26-2025 19:26:35.007,-0.128344,-0.165188,1.0431,2.94,3.535,-21.595,0.1965,-0.123,-0.1665
06-26-2025 19:26:35.047,0.010492,-0.160064,1.028948,4.235,3.43,-18.62,0.198,-0.1125,-0.162
06-26-2025 19:26:35.087,-0.131028,-0.16958,1.03822,5.11,3.535,-17.395,0.2085,-0.1215,-0.1665
06-26-2025 19:26:35.127,-0.15128,-0.116388,1.016504,2.8,1.645,-13.37,0.2115,-0.1215,-0.168
06-26-2025 19:26:35.167,-0.129808,-0.26108,0.998936,7.7,-1.4,-13.615,0.201,-0.123,-0.168
06-26-2025 19:26:35.207,-0.193492,-0.093696,0.955748,6.825,-2.625,-11.13,0.2115,-0.1215,-0.168
06-26-2025 19:26:35.247,-0.135908,-0.200324,0.946964,8.155,-3.29,-11.445,0.204,-0.132,-0.168
06-26-2025 19:26:35.287,-0.135664,-0.11468,0.913048,6.37,-2.03,-8.645,0.2085,-0.144,-0.165
06-26-2025 19:26:35.327,-0.151768,-0.174948,0.931104,7.42,-1.855,-8.54,0.219,-0.132,-0.1575
06-26-2025 19:26:35.367,-0.109068,-0.112972,0.952576,4.55,-2.1,-5.46,0.2085,-0.135,-0.162
06-26-2025 19:26:35.407,-0.121024,-0.12932,0.920612,0.7,-2.625,-3.15,0.207,-0.141,-0.1665
06-26-2025 19:26:35.447,-0.134932,-0.090036,0.876692,-4.2,-2.8,0,0.2025,-0.1365,-0.1665
06-26-2025 19:26:35.487,-0.115168,-0.1647,0.901092,-6.545,-2.835,2.625,0.2055,-0.141,-0.1575
06-26-2025 19:26:35.527,-0.0915,-0.09467199,0.984784,-7.49,-2.38,6.825,0.207,-0.1365,-0.156
06-26-2025 19:26:35.567,-0.084912,-0.037576,0.983564,-5.285,-1.925,7.42,0.2055,-0.1275,-0.1545
06-26-2025 19:26:35.607,-0.075396,-0.1586,0.979172,-3.43,-1.505,7.105,0.1995,-0.132,-0.1575
06-26-2025 19:26:35.647,-0.06222,-0.09467199,1.130452,-6.72,-0.98,12.25,0.204,-0.1335,-0.1635
06-26-2025 19:26:35.687,-0.145424,-0.132248,1.03212,2.52,2.065,7.14,0.1965,-0.141,-0.168
06-26-2025 19:26:35.727,0.012688,-0.227896,0.937448,-4.515,6.51,16.1,0.1935,-0.1275,-0.165
06-26-2025 19:26:35.767,-0.197396,-0.031232,0.984296,-6.965,6.51,19.985,0.189,-0.1305,-0.1545
06-26-2025 19:26:35.807,-0.214476,-0.118584,1.0736,-2.38,4.725,19.075,0.1905,-0.1245,-0.168
06-26-2025 19:26:35.847,-0.044652,-0.315248,0.949404,6.51,5.25,22.435,0.195,-0.129,-0.1695
06-26-2025 19:26:35.887,-0.127368,0.019032,0.998448,5.95,5.005,28.14,0.192,-0.123,-0.165
06-26-2025 19:26:35.927,-0.02684,-0.237412,1.212924,16.59,8.505,20.72,0.183,-0.1245,-0.168
06-26-2025 19:26:35.967,-0.345992,-0.11224,1.159488,7.56,3.99,25.655,0.192,-0.132,-0.168
06-26-2025 19:26:36.007,-0.021472,-0.189344,1.0675,11.025,6.16,24.22,0.1875,-0.1275,-0.1605
06-26-2025 19:26:36.047,-0.188124,-0.213012,0.950136,8.925,7.49,27.125,0.186,-0.135,-0.168
06-26-2025 19:26:36.087,-0.137616,-0.196908,1.13582,13.685,6.265,25.62,0.174,-0.1365,-0.162
06-26-2025 19:26:36.127,-0.235216,-0.02928,1.031632,14.91,6.615,23.38,0.1695,-0.1455,-0.1605
06-26-2025 19:26:36.167,-0.222284,-0.123952,1.0126,11.06,5.705,18.865,0.18,-0.1515,-0.156
06-26-2025 19:26:36.207,-0.1769,-0.128832,1.020164,7.175,5.635,15.505,0.1665,-0.1515,-0.156
06-26-2025 19:26:36.247,-0.260348,-0.137128,1.012112,0.455,5.81,14,0.1695,-0.1485,-0.153
06-26-2025 19:26:36.287,-0.150548,-0.171044,1.040416,-1.295,7.175,12.425,0.1695,-0.15,-0.1515
06-26-2025 19:26:36.327,-0.228384,-0.0854,1.087264,-5.915,11.06,13.65,0.15,-0.1455,-0.1485
06-26-2025 19:26:36.367,-0.183488,-0.160064,1.124596,-2.905,15.05,10.325,0.153,-0.1515,-0.1455
06-26-2025 19:26:36.407,-0.237168,-0.054168,1.100684,-5.6,20.23,10.395,0.156,-0.1455,-0.1485
06-26-2025 19:26:36.447,-0.298656,-0.120536,1.022604,-2.345,22.75,5.39,0.165,-0.156,-0.147
06-26-2025 19:26:36.487,-0.304268,-0.07905599,0.938912,-7.21,23.45,6.23,0.174,-0.144,-0.1485
06-26-2025 19:26:36.527,-0.338184,-0.103212,0.969412,-7.7,21.735,4.235,0.1755,-0.147,-0.153
06-26-2025 19:26:36.567,-0.278404,-0.170556,0.994544,-8.4,21.56,4.305,0.192,-0.138,-0.15
06-26-2025 19:26:36.607,-0.277672,-0.123708,1.024312,-11.305,24.71,6.86,0.195,-0.1395,-0.159
06-26-2025 19:26:36.647,-0.296948,-0.154208,1.036512,-4.515,29.155,5.32,0.1935,-0.1455,-0.1695
06-26-2025 19:26:36.687,-0.351604,-0.159576,0.968436,-6.58,29.54,7.42,0.1965,-0.138,-0.1605
06-26-2025 19:26:36.727,-0.353068,-0.0671,1.011136,-2.485,27.965,5.6,0.204,-0.135,-0.159
06-26-2025 19:26:36.767,-0.3233,-0.191052,0.971852,-3.745,26.04,5.005,0.207,-0.1365,-0.1725
06-26-2025 19:26:36.807,-0.177388,-0.122488,1.043832,-4.97,28.07,6.51,0.2145,-0.1365,-0.1755
06-26-2025 19:26:36.847,-0.155916,-0.020008,1.031388,-8.19,26.53,9.135,0.216,-0.1455,-0.162
06-26-2025 19:26:36.887,-0.36234,-0.155672,1.088728,-3.29,21.56,3.745,0.2235,-0.1425,-0.1665
06-26-2025 19:26:36.927,-0.14518,-0.244488,0.777872,-3.5,21.35,2.205,0.2295,-0.144,-0.1755
06-26-2025 19:26:36.967,-0.33672,-0.014884,0.956236,-9.1,19.705,4.725,0.2265,-0.144,-0.1605
06-26-2025 19:26:37.007,-0.422364,-0.213012,1.0431,-5.845,15.26,-0.315,0.246,-0.1515,-0.171
06-26-2025 19:26:37.047,-0.262788,-0.104676,0.847412,-8.995,17.71,0.595,0.2415,-0.147,-0.177
06-26-2025 19:26:37.087,-0.396744,-0.212524,1.01992,-6.895,19.67,-2.205,0.2535,-0.147,-0.168
06-26-2025 19:26:37.127,-0.543388,-0.132004,0.970632,-12.495,19.985,0.875,0.2535,-0.1485,-0.1695
06-26-2025 19:26:37.167,-0.427488,-0.200568,0.942816,-7.35,19.355,-4.2,0.2475,-0.147,-0.171
06-26-2025 19:26:37.207,-0.44164,-0.191296,0.921588,-10.99,21.91,-3.465,0.2625,-0.147,-0.174
06-26-2025 19:26:37.247,-0.610488,-0.193736,0.971608,-13.755,18.935,-2.45,0.264,-0.144,-0.1785
06-26-2025 19:26:37.287,-0.488976,-0.229848,0.982588,-9.695,19.565,-5.075,0.279,-0.132,-0.18
06-26-2025 19:26:37.327,-0.53314,-0.27938,0.926712,-11.55,21.14,-4.13,0.285,-0.1335,-0.177
06-26-2025 19:26:37.367,-0.55266,-0.18544,0.92842,-9.73,18.305,-2.695,0.2805,-0.1335,-0.183
06-26-2025 19:26:37.407,-0.435296,-0.282308,0.969412,-6.475,15.4,-2.555,0.297,-0.135,-0.177
06-26-2025 19:26:37.447,0.730292,0.093452,1.180716,-2.31,23.03,-2.45,0.3,-0.1305,-0.177
06-26-2025 19:26:37.487,-0.773236,-0.359168,0.889136,-6.23,-1.68,-0.35,0.312,-0.1245,-0.18
06-26-2025 19:26:37.527,-0.021228,0.222772,0.977464,-1.68,10.29,-2.31,0.3105,-0.1245,-0.18
06-26-2025 19:26:37.567,-0.571204,-0.249124,0.81374,-7,0,1.82,0.3135,-0.1215,-0.174
06-26-2025 19:26:37.607,-0.47458,-0.495564,0.778604,4.515,8.925,-4.34,0.3135,-0.123,-0.1875
06-26-2025 19:26:37.647,-0.426268,-0.099552,0.833992,1.435,20.055,0.945,0.3075,-0.129,-0.18
06-26-2025 19:26:37.687,-0.793244,-0.1159,0.60878,-5.145,22.715,2.73,0.312,-0.123,-0.1905
06-26-2025 19:26:37.727,-0.664168,-0.195444,1.153388,-1.575,19.67,-5.425,0.3255,-0.1125,-0.198
06-26-2025 19:26:37.767,-0.806176,-0.08295999,1.075796,-11.97,16.66,2.66,0.3345,-0.1125,-0.1905
06-26-2025 19:26:37.807,-0.602436,-0.448716,1.203408,2.205,9.765,-0.35,0.3405,-0.117,-0.186
06-26-2025 19:26:37.847,-0.621712,-0.424804,1.190964,7.385,1.05,2.8,0.3375,-0.111,-0.18
06-26-2025 19:26:37.887,-0.542656,-0.164456,0.931836,5.355,-2.135,5.915,0.3375,-0.1185,-0.1695
06-26-2025 19:26:37.927,-0.734684,-0.142008,0.853756,7.35,-2.45,-1.365,0.339,-0.1125,-0.177
06-26-2025 19:26:37.967,-0.724436,-0.237656,0.634888,6.545,1.96,-1.54,0.3345,-0.117,-0.174
06-26-2025 19:26:38.007,-0.522892,-0.262056,0.712724,6.335,3.955,-3.465,0.342,-0.1155,-0.1695
06-26-2025 19:26:38.047,-0.516304,-0.268644,0.854244,4.97,5.215,-4.13,0.3405,-0.123,-0.177
06-26-2025 19:26:38.087,-0.691496,-0.172264,1.015772,4.9,3.71,-0.175,0.342,-0.1245,-0.171
06-26-2025 19:26:38.127,-0.660264,-0.177632,0.888648,6.3,2.345,0.455,0.336,-0.12,-0.1695
06-26-2025 19:26:38.167,-0.696864,-0.150792,0.900604,5.775,1.61,1.225,0.3345,-0.1215,-0.162
06-26-2025 19:26:38.207,-0.687836,-0.180316,0.918904,3.605,0,1.47,0.3465,-0.129,-0.171
06-26-2025 19:26:38.247,-0.655628,-0.222528,0.962824,2.66,-1.295,-1.505,0.336,-0.1215,-0.168
06-26-2025 19:26:38.287,-0.628788,-0.177876,0.927932,-0.035,-2.03,-2.24,0.345,-0.126,-0.1635
06-26-2025 19:26:38.327,-0.662216,-0.132492,0.85766,-2.45,-2.17,-1.33,0.3345,-0.1245,-0.1635
06-26-2025 19:26:38.367,-0.595116,-0.178608,0.872788,-1.47,-0.91,0,0.3435,-0.1245,-0.1665
06-26-2025 19:26:38.407,-0.617076,-0.204472,0.860588,-1.05,0.21,2.66,0.3345,-0.117,-0.165
06-26-2025 19:26:38.447,-0.654408,-0.185196,0.837896,-0.455,1.295,2.31,0.3435,-0.123,-0.1665
06-26-2025 19:26:38.487,-0.625372,-0.204228,0.891332,-2.45,1.995,0.875,0.333,-0.1245,-0.168
06-26-2025 19:26:38.527,-0.685152,-0.194468,0.938424,-5.18,1.61,0.21,0.3375,-0.123,-0.174
06-26-2025 19:26:38.567,-0.704916,-0.314028,0.855708,-3.78,0.105,-2.66,0.3435,-0.123,-0.174
06-26-2025 19:26:38.607,-0.686372,-0.220088,0.89914,-2.555,-1.365,-0.63,0.339,-0.126,-0.1725
06-26-2025 19:26:38.647,-0.659776,-0.193004,0.897676,-1.47,-2.765,1.54,0.3405,-0.1245,-0.174
06-26-2025 19:26:38.687,-0.609756,-0.232288,0.819108,1.295,-2.065,1.785,0.3345,-0.12,-0.1695
06-26-2025 19:26:38.727,-0.60024,-0.208132,0.827892,0.14,-0.56,2.695,0.333,-0.1245,-0.1725
06-26-2025 19:26:38.767,-0.613172,-0.217648,0.859612,-0.77,0.63,0.28,0.3375,-0.12,-0.1725
06-26-2025 19:26:38.807,-0.639036,-0.250832,0.8845,-1.995,1.995,-1.96,0.342,-0.1245,-0.171
06-26-2025 19:26:38.847,-0.660996,-0.200324,0.928908,-3.43,1.89,-1.47,0.345,-0.123,-0.171
06-26-2025 19:26:38.887,-0.712236,-0.197884,0.959164,-0.805,0.84,-1.4,0.342,-0.123,-0.1785
06-26-2025 19:26:38.927,-0.65758,-0.240584,0.981124,1.295,-0.385,0.98,0.3405,-0.126,-0.177
06-26-2025 19:26:38.967,-0.641476,-0.201544,0.93086,1.68,-1.68,2.625,0.3405,-0.1155,-0.1755
06-26-2025 19:26:39.007,-0.65514,-0.197396,0.85644,1.96,-2.31,1.19,0.3315,-0.1155,-0.1665
06-26-2025 19:26:39.047,-0.618052,-0.208376,0.800076,-0.28,-0.91,-0.315,0.33,-0.1215,-0.1755
06-26-2025 19:26:39.087,-0.599508,-0.194956,0.82594,-1.54,0.56,-1.785,0.333,-0.1125,-0.171
06-26-2025 19:26:39.127,-0.621224,-0.22082,0.882304,-0.7,1.54,-2.31,0.3435,-0.1125,-0.1725
06-26-2025 19:26:39.167,-0.663192,-0.20984,0.92476,-0.77,2.275,-0.21,0.3405,-0.12,-0.174
06-26-2025 19:26:39.207,-0.671488,-0.196908,0.94916,0.84,1.155,1.085,0.345,-0.1185,-0.174
06-26-2025 19:26:39.247,-0.664412,-0.233508,0.936472,2.415,0.385,1.225,0.3435,-0.1245,-0.1755
06-26-2025 19:26:39.287,-0.64538,-0.207644,0.920612,0.525,-0.945,1.19,0.348,-0.1245,-0.1725
06-26-2025 19:26:39.327,-0.613172,-0.182756,0.901092,0.665,-1.785,-1.54,0.3375,-0.1245,-0.1725
06-26-2025 19:26:39.367,-0.637084,-0.262056,0.835456,-0.42,-1.05,-1.96,0.333,-0.1245,-0.1725
06-26-2025 19:26:39.407,-0.597556,-0.180316,0.8479,-1.575,-0.35,-0.28,0.3405,-0.123,-0.1695
06-26-2025 19:26:39.447,-0.631228,-0.196176,0.8784,1.19,0.84,-0.91,0.345,-0.117,-0.1755
06-26-2025 19:26:39.487,-0.64782,-0.244,0.899384,0.875,1.33,1.435,0.3495,-0.1155,-0.168
06-26-2025 19:26:39.527,-0.65392,-0.18422,0.925004,0.665,0.77,1.47,0.333,-0.123,-0.165
06-26-2025 19:26:39.567,-0.670756,-0.248148,0.908168,0.525,0.07,-0.525,0.339,-0.129,-0.1755
06-26-2025 19:26:39.607,-0.64904,-0.18666,0.897676,-2.415,-0.28,-0.105,0.3375,-0.1125,-0.1665
06-26-2025 19:26:39.647,-0.650504,-0.201544,0.909144,-0.84,-0.28,-2.24,0.3405,-0.1185,-0.18
06-26-2025 19:26:39.687,-0.65758,-0.249856,0.901824,-0.49,-0.735,-1.015,0.3405,-0.1185,-0.1815
06-26-2025 19:26:39.727,-0.631716,-0.186416,0.892796,-0.49,-0.49,1.54,0.336,-0.126,-0.1695
06-26-2025 19:26:39.767,-0.624884,-0.217892,0.87474,2.065,-0.385,0.525,0.3375,-0.1155,-0.1725
06-26-2025 19:26:39.807,-0.618052,-0.201056,0.874984,-0.105,0.035,1.855,0.336,-0.1215,-0.1755
06-26-2025 19:26:39.847,-0.651968,-0.186172,0.874496,-0.28,0.35,-0.14,0.3495,-0.1215,-0.1665
06-26-2025 19:26:39.887,-0.626592,-0.253028,0.897432,-0.385,0.455,-2.135,0.3375,-0.117,-0.1785
06-26-2025 19:26:39.927,-0.656848,-0.191052,0.895236,-2.24,0.665,0,0.3435,-0.114,-0.165
06-26-2025 19:26:39.967,-0.67344,-0.196176,0.91866,0.035,0.56,-1.12,0.342,-0.114,-0.168
06-26-2025 19:26:40.007,-0.658556,-0.22936,0.931836,0.56,0,0.56,0.339,-0.1155,-0.1665
06-26-2025 19:26:40.047,-0.65636,-0.181048,0.90158,0.49,-0.735,1.715,0.342,-0.129,-0.1755
06-26-2025 19:26:40.087,-0.63196,-0.222284,0.884012,1.225,-0.98,-0.28,0.339,-0.114,-0.1725
06-26-2025 19:26:40.127,-0.624152,-0.213988,0.849364,-1.12,-0.84,0.665,0.3495,-0.12,-0.171
06-26-2025 19:26:40.167,-0.618052,-0.191296,0.842288,-1.05,0.175,-0.91,0.3375,-0.1245,-0.174
06-26-2025 19:26:40.207,-0.640744,-0.229604,0.86986,-1.05,1.05,-1.225,0.342,-0.117,-0.174
06-26-2025 19:26:40.247,-0.656604,-0.172996,0.909388,-2.625,1.12,1.54,0.342,-0.1185,-0.18
06-26-2025 19:26:40.287,-0.673196,-0.225944,0.949404,-0.035,0.42,-0.21,0.3465,-0.1245,-0.1815
06-26-2025 19:26:40.327,-0.668804,-0.253516,0.92476,-0.91,-0.525,0.77,0.333,-0.12,-0.174
06-26-2025 19:26:40.367,-0.660752,-0.21472,0.910852,-0.7,-1.12,0.77,0.339,-0.1275,-0.1725
06-26-2025 19:26:40.407,-0.65148,-0.210816,0.8906,0.35,-1.05,-0.455,0.345,-0.126,-0.174
06-26-2025 19:26:40.447,-0.618784,-0.185928,0.869128,1.12,-0.7,-0.385,0.342,-0.123,-0.1755
06-26-2025 19:26:40.487,-0.648064,-0.230336,0.911096,2.695,0,1.505,0.3495,-0.114,-0.1725
06-26-2025 19:26:40.527,-0.759572,-0.150304,1.041148,1.365,-1.575,1.925,0.3495,-0.114,-0.1725
06-26-2025 19:26:40.567,-0.682712,-0.289628,1.0431,0.98,-5.46,-3.5,0.3375,-0.108,-0.1815
06-26-2025 19:26:40.607,-0.72224,-0.163724,1.080432,-4.76,-10.92,-1.505,0.333,-0.1215,-0.1695
06-26-2025 19:26:40.647,-0.691252,-0.156648,0.9577,-1.47,-14.77,-5.11,0.3345,-0.123,-0.1695
06-26-2025 19:26:40.687,-0.680028,-0.298168,0.87474,-1.61,-18.48,-4.025,0.339,-0.1215,-0.177
06-26-2025 19:26:40.727,-0.691984,-0.193004,1.045296,-10.01,-23.415,-1.715,0.318,-0.12,-0.1635
06-26-2025 19:26:40.767,-0.60146,-0.227896,0.998448,-6.23,-25.655,-6.72,0.3165,-0.1245,-0.183
06-26-2025 19:26:40.807,-0.638548,-0.229604,0.914024,-8.015,-29.26,-0.14,0.3135,-0.1245,-0.1875
06-26-2025 19:26:40.847,-0.585356,-0.257664,0.984784,-4.76,-31.745,-0.735,0.309,-0.117,-0.1845
06-26-2025 19:26:40.887,-0.609756,-0.301828,0.973072,-6.545,-33.005,-0.21,0.2925,-0.123,-0.195
06-26-2025 19:26:40.927,-0.584868,-0.17934,0.984784,-6.615,-34.125,0.525,0.2805,-0.1215,-0.2025
06-26-2025 19:26:40.967,-0.49654,-0.198616,1.00772,-1.435,-33.425,-6.16,0.2715,-0.1215,-0.192
06-26-2025 19:26:41.007,-0.510204,-0.282064,1.002108,-3.185,-33.775,-4.76,0.2595,-0.126,-0.1995
06-26-2025 19:26:41.047,-0.498004,-0.166652,0.993812,-7.385,-34.335,0.385,0.2445,-0.117,-0.1965
06-26-2025 19:26:41.087,-0.457744,-0.219112,0.989176,-4.34,-34.51,-2.8,0.237,-0.12,-0.1965
06-26-2025 19:26:41.127,-0.421144,-0.251564,0.976976,-4.305,-35.28,-0.91,0.237,-0.1155,-0.1995
06-26-2025 19:26:41.167,-0.51362,-0.305732,0.969168,-4.515,-35.7,1.505,0.2175,-0.1125,-0.1995
06-26-2025 19:26:41.207,-0.374052,-0.289872,0.979904,-4.06,-35.595,1.225,0.2115,-0.1215,-0.2025
06-26-2025 19:26:41.247,-0.331352,-0.338428,0.940132,-0.7,-34.51,1.715,0.189,-0.1125,-0.1995
06-26-2025 19:26:41.287,-0.34526,-0.331352,1.031144,1.12,-33.67,3.115,0.1815,-0.111,-0.198
06-26-2025 19:26:41.327,-0.309392,-0.308172,1.009672,1.19,-33.775,2.38,0.174,-0.108,-0.198
06-26-2025 19:26:41.367,-0.237656,-0.2623,0.957944,0.665,-33.25,0.735,0.1515,-0.111,-0.186
06-26-2025 19:26:41.407,-0.227164,-0.28914,0.980636,2.31,-31.99,-1.435,0.144,-0.1065,-0.1875
06-26-2025 19:26:41.447,-0.350872,-0.338916,0.974536,1.015,-30.905,-2.765,0.132,-0.1035,-0.1935
06-26-2025 19:26:41.487,-0.198128,-0.268644,0.976488,0.595,-28.49,1.12,0.117,-0.111,-0.1875
06-26-2025 19:26:41.527,-0.183,-0.214964,0.96624,2.45,-26.6,-1.89,0.114,-0.1095,-0.1905
06-26-2025 19:26:41.567,-0.064172,-0.3233,1.083848,5.25,-26.355,-1.785,0.102,-0.1035,-0.1845
06-26-2025 19:26:41.607,-0.150548,-0.211548,0.993812,3.535,-23.975,0.42,0.1035,-0.1065,-0.186
06-26-2025 19:26:41.647,-0.18544,-0.289628,1.079944,6.93,-24.5,-2.52,0.09,-0.1035,-0.1725
06-26-2025 19:26:41.687,-0.06222,-0.298412,0.948672,6.335,-22.82,-0.805,0.078,-0.102,-0.174
06-26-2025 19:26:41.727,-0.152988,-0.255956,1.027728,9.03,-22.155,-1.505,0.0795,-0.1125,-0.1635
06-26-2025 19:26:41.767,-0.10736,-0.256444,0.934032,10.43,-20.615,-0.56,0.0705,-0.1155,-0.1635
06-26-2025 19:26:41.807,-0.186172,-0.256688,0.987712,11.585,-18.27,2.765,0.06,-0.1155,-0.162
06-26-2025 19:26:41.847,-0.177632,-0.256444,0.914512,13.02,-15.645,2.73,0.0525,-0.129,-0.1635
06-26-2025 19:26:41.887,-0.201544,-0.292556,0.909144,16.555,-11.515,3.325,0.0465,-0.1215,-0.159
06-26-2025 19:26:41.927,-0.1708,-0.229116,0.84424,17.85,-6.02,4.375,0.0525,-0.123,-0.153
06-26-2025 19:26:41.967,-0.048312,-0.354288,0.884012,15.715,0.14,3.115,0.036,-0.1215,-0.156
06-26-2025 19:26:42.007,-0.058804,-0.092476,0.876692,6.51,0.455,-1.575,0.042,-0.1365,-0.1545
06-26-2025 19:26:42.047,-0.040504,-0.165432,0.901824,6.09,4.025,-9.87,0.033,-0.1335,-0.153
06-26-2025 19:26:42.087,0.094428,0.03416,1.378844,1.295,6.335,-7.07,0.03,-0.144,-0.1515
06-26-2025 19:26:42.127,-0.069784,-0.188612,1.073112,2.415,2.1,-4.305,0.0405,-0.144,-0.144
06-26-2025 19:26:42.167,-0.11468,0.002196,1.102636,-2.835,4.2,0.175,0.0375,-0.1455,-0.15
06-26-2025 19:26:42.207,-0.04026,-0.116876,1.01382,-0.315,0.28,-5.075,0.036,-0.1485,-0.1545
06-26-2025 19:26:42.247,-0.087596,-0.210084,1.118008,-2.38,-2.03,-2.765,0.039,-0.1455,-0.1485
06-26-2025 19:26:42.287,-0.123464,-0.073444,0.91256,-3.64,0.525,0.63,0.033,-0.1485,-0.15
06-26-2025 19:26:42.327,-0.065148,-0.172996,1.03578,-1.54,2.24,-2.205,0.0345,-0.1395,-0.144
06-26-2025 19:26:42.367,0.095404,-0.202764,1.027484,-2.87,2.73,-2.135,0.0345,-0.147,-0.147
06-26-2025 19:26:42.407,-0.08174,-0.288896,0.865224,-5.705,-0.84,2.24,0.027,-0.159,-0.1515
06-26-2025 19:26:42.447,0.07808,-0.19398,0.977464,0.315,1.33,-1.89,0.0315,-0.147,-0.159
06-26-2025 19:26:42.487,0.013908,-0.344772,1.255136,1.54,-0.56,-1.505,0.033,-0.1425,-0.1515
06-26-2025 19:26:42.527,0.175924,-0.175192,1.190232,0.77,-0.28,2.205,0.024,-0.144,-0.1485
06-26-2025 19:26:42.567,0.041236,-0.256932,1.055056,1.015,-0.21,1.435,0.0315,-0.15,-0.1485
06-26-2025 19:26:42.607,-0.05002,-0.1952,0.90768,1.61,1.855,-0.595,0.0135,-0.1545,-0.156
06-26-2025 19:26:42.647,-0.086132,-0.223016,0.971852,0.595,0.49,-2.345,0.027,-0.1545,-0.1485
06-26-2025 19:26:42.687,0.113704,-0.23424,1.048468,1.575,-0.245,0.525,0.0255,-0.1545,-0.1575
06-26-2025 19:26:42.727,-0.050508,-0.177388,1.006012,0.665,-0.595,1.54,0.024,-0.1545,-0.153
06-26-2025 19:26:42.767,0.043676,-0.177144,1.060668,1.295,0.14,0.175,0.024,-0.153,-0.153
06-26-2025 19:26:42.807,-0.05734,-0.185928,1.019676,-0.56,-0.07,1.575,0.024,-0.1515,-0.1515
06-26-2025 19:26:42.847,-0.0244,-0.119804,0.910608,-0.07,-0.455,0.805,0.0255,-0.15,-0.1485
06-26-2025 19:26:42.887,-0.038552,-0.189344,1.027484,-0.56,-2.38,0.07,0.0285,-0.1545,-0.1455
06-26-2025 19:26:42.927,0.022204,-0.200324,1.320284,0,-3.85,-0.875,0.0345,-0.1515,-0.156
06-26-2025 19:26:42.967,0.369416,-0.170556,0.822036,0.245,-0.63,-1.54,0.0345,-0.1515,-0.147
06-26-2025 19:26:43.007,0.163236,-0.07808,1.33956,0.77,1.295,-2.065,0.036,-0.162,-0.1455
06-26-2025 19:26:43.047,0.200324,-0.363316,1.245864,1.085,-0.455,-1.365,0.033,-0.153,-0.153
06-26-2025 19:26:43.087,0.051484,-0.23058,0.959896,1.75,-1.26,-0.665,0.036,-0.159,-0.1425
06-26-2025 19:26:43.127,-0.02806,-0.150792,1.09434,1.015,-0.98,0.28,0.042,-0.1635,-0.1485
06-26-2025 19:26:43.167,-0.134444,-0.106872,0.914024,0.665,3.43,0.455,0.036,-0.1605,-0.144
06-26-2025 19:26:43.207,2.039108,0.530944,2.321172,1.19,6.09,1.4,0.036,-0.15,-0.138
06-26-2025 19:26:43.247,0.778848,0.365512,1.30784,2.135,-8.4,0.07,0.048,-0.1605,-0.1395
06-26-2025 19:26:43.287,-0.345748,-0.383812,0.85156,-2.31,1.085,3.465,0.039,-0.153,-0.144
06-26-2025 19:26:43.327,-0.407968,-0.25498,1.20902,-1.925,1.54,-0.245,0.039,-0.171,-0.132
06-26-2025 19:26:43.367,-0.021228,-0.125904,1.15656,-3.99,1.365,0.455,0.0405,-0.1575,-0.141
06-26-2025 19:26:43.407,-0.193492,-0.11712,0.865224,-4.9,-1.47,1.995,0.0345,-0.1605,-0.1395
06-26-2025 19:26:43.447,-0.025864,-0.166408,1.036024,-4.27,0.28,-0.91,0.042,-0.153,-0.135
06-26-2025 19:26:43.487,-0.095648,-0.255224,1.06994,-3.115,-0.56,2.31,0.0405,-0.159,-0.141
06-26-2025 19:26:43.527,-0.072224,-0.200324,0.901824,-1.05,-0.805,1.155,0.0405,-0.1545,-0.1455
06-26-2025 19:26:43.567,0.051484,-0.181292,1.039196,-0.875,0.77,-1.68,0.039,-0.1605,-0.141
06-26-2025 19:26:43.607,-0.06832,-0.201056,1.083116,0.385,-0.455,0.875,0.0405,-0.147,-0.138
06-26-2025 19:26:43.647,-0.03172,-0.203984,0.990396,1.855,-0.385,-1.26,0.042,-0.153,-0.1455
06-26-2025 19:26:43.687,0.099308,-0.216916,0.955016,1.925,1.365,-0.665,0.0375,-0.156,-0.1455
06-26-2025 19:26:43.727,-0.065636,-0.217648,1.011136,1.715,0.735,0.42,0.0435,-0.1485,-0.144
06-26-2025 19:26:43.767,-0.1586,-0.203008,1.118984,2.66,1.05,-1.155,0.039,-0.1485,-0.1395
06-26-2025 19:26:43.807,0.021228,-0.178364,1.018944,2.73,-0.35,-1.47,0.0435,-0.1575,-0.15
06-26-2025 19:26:43.847,-0.107848,-0.162748,1.024312,2.52,-1.785,0.35,0.042,-0.15,-0.1425
06-26-2025 19:26:43.887,0.119072,-0.161528,0.990152,2.24,1.085,-0.875,0.042,-0.156,-0.138
06-26-2025 19:26:43.927,-0.061976,-0.192028,1.01992,1.365,-0.49,-1.855,0.042,-0.1575,-0.1335
06-26-2025 19:26:43.967,-0.080032,-0.196908,1.05774,1.435,1.225,0.385,0.0375,-0.1635,-0.1305
06-26-2025 19:26:44.007,-0.052216,-0.155672,1.070184,1.19,0.49,0.35,0.042,-0.1605,-0.1455
06-26-2025 19:26:44.047,-0.034404,-0.165676,0.990884,0.315,-0.7,-0.385,0.042,-0.162,-0.1365
06-26-2025 19:26:44.087,-0.024156,-0.190076,0.989908,0.315,0.35,-0.84,0.0405,-0.159,-0.1455
06-26-2025 19:26:44.127,-0.056608,-0.183976,1.078724,-0.07,0,0.525,0.039,-0.1635,-0.1455
06-26-2025 19:26:44.167,-0.045872,-0.182512,1.004548,-0.525,-0.77,0.21,0.0375,-0.1545,-0.1365
06-26-2025 19:26:44.207,-0.010004,-0.196664,1.0126,-0.665,-0.56,-1.715,0.045,-0.159,-0.1455
06-26-2025 19:26:44.247,-0.016104,-0.190076,1.020164,-1.085,0.385,2.38,0.039,-0.1635,-0.1395
06-26-2025 19:26:44.287,-0.072956,-0.181292,0.986248,-1.26,-0.28,0.49,0.036,-0.153,-0.1515
06-26-2025 19:26:44.327,0.000488,-0.18178,1.00284,-1.54,0.945,-1.68,0.048,-0.156,-0.1365
06-26-2025 19:26:44.367,-0.061488,-0.20496,1.071648,-0.945,0,2.065,0.042,-0.15,-0.138
06-26-2025 19:26:44.407,-0.069052,-0.170068,1.057984,-0.385,-0.595,-0.735,0.0375,-0.1605,-0.141
06-26-2025 19:26:44.447,0.01586,-0.18544,1.008696,-0.385,-0.77,-1.155,0.042,-0.1545,-0.147
06-26-2025 19:26:44.487,-0.022448,-0.132492,0.98942,-0.84,-0.525,2.31,0.0495,-0.162,-0.135
06-26-2025 19:26:44.527,-0.037576,-0.178608,1.009184,-0.28,0.49,-1.225,0.0405,-0.156,-0.1365
06-26-2025 19:26:44.567,-0.061732,-0.207644,1.06994,0.035,0.28,-0.595,0.048,-0.1575,-0.144
06-26-2025 19:26:44.607,-0.028792,-0.17446,0.982832,0.28,0.07,1.61,0.0435,-0.1605,-0.135
06-26-2025 19:26:44.647,-0.020252,-0.19886,1.015772,0.525,0.56,-1.855,0.0435,-0.1605,-0.135
06-26-2025 19:26:44.687,-0.08295999,-0.188124,1.067744,0.42,0.14,1.05,0.039,-0.1575,-0.135
06-26-2025 19:26:44.727,-0.044164,-0.17934,1.004304,0.56,-0.245,-0.07,0.0435,-0.1635,-0.141
06-26-2025 19:26:44.767,-0.008784,-0.184708,1.042124,0.77,-0.035,-1.295,0.045,-0.156,-0.141
06-26-2025 19:26:44.807,-0.062952,-0.175192,1.027728,0.7,-0.56,1.015,0.0345,-0.1575,-0.141
06-26-2025 19:26:44.847,-0.022448,-0.161284,1.010892,0.28,-0.105,-0.665,0.0375,-0.156,-0.135
06-26-2025 19:26:44.887,0.006344,-0.15616,0.988444,0.07,0.84,0.42,0.0375,-0.156,-0.135
06-26-2025 19:26:44.927,-0.055876,-0.17812,1.033096,-0.35,0.21,0.315,0.042,-0.156,-0.1335
06-26-2025 19:26:44.967,-0.091256,-0.181048,1.071404,-0.315,0.56,-0.735,0.042,-0.1575,-0.138
06-26-2025 19:26:45.007,-0.038552,-0.186172,1.020408,0.245,-0.42,0.7,0.0405,-0.1575,-0.1485
06-26-2025 19:26:45.047,-0.01464,-0.16348,0.991372,-0.28,-0.7,-0.07,0.039,-0.159,-0.138
06-26-2025 19:26:45.087,-0.023912,-0.190076,1.01504,-0.07,0.105,-0.665,0.039,-0.1455,-0.1425
06-26-2025 19:26:45.127,-0.069296,-0.1952,1.038708,-0.07,-0.28,0.77,0.039,-0.1455,-0.1425
06-26-2025 19:26:45.167,-0.01586,-0.16714,0.996252,-0.315,0.175,-0.56,0.0405,-0.153,-0.1425
06-26-2025 19:26:45.207,-0.017568,-0.179828,1.014308,-0.035,0.49,-0.315,0.036,-0.1545,-0.1395
06-26-2025 19:26:45.247,-0.08906,-0.190808,1.057252,0.035,0.14,1.085,0.042,-0.1575,-0.141
06-26-2025 19:26:45.287,-0.015372,-0.182512,1.008208,0.385,0.21,-1.12,0.0405,-0.1575,-0.1395
06-26-2025 19:26:45.327,-0.038308,-0.177144,1.02114,0.175,0.07,-0.14,0.045,-0.156,-0.1365
06-26-2025 19:26:45.367,-0.062952,-0.1708,1.042124,0.07,-0.49,0.525,0.0405,-0.1455,-0.1425
06-26-2025 19:26:45.407,-0.025376,-0.179584,1.009184,0.245,-0.21,-1.365,0.045,-0.162,-0.144
06-26-2025 19:26:45.447,-0.015128,-0.174216,0.989664,-0.035,-0.105,0.945,0.042,-0.162,-0.135
06-26-2025 19:26:45.487,-0.021228,-0.17324,1.010892,-0.385,0.35,0.175,0.0405,-0.15,-0.141
06-26-2025 19:26:45.527,-0.071004,-0.193004,1.040172,-0.175,0.42,-1.05,0.042,-0.159,-0.1485
06-26-2025 19:26:45.567,-0.042212,-0.183976,1.032364,-0.07,0.35,0.91,0.033,-0.1605,-0.1425
06-26-2025 19:26:45.607,-0.05002,-0.176656,1.021872,0.105,-0.21,-0.455,0.0435,-0.153,-0.138
06-26-2025 19:26:45.647,-0.016836,-0.173972,1.017968,0.105,-0.105,-0.49,0.0405,-0.153,-0.1455
06-26-2025 19:26:45.687,-0.053436,-0.184464,1.02968,-0.035,-0.245,0.98,0.042,-0.156,-0.1455
06-26-2025 19:26:45.727,-0.032696,-0.172264,1.004548,0.105,-0.21,-0.665,0.033,-0.156,-0.1425
06-26-2025 19:26:45.767,-0.010492,-0.186172,1.00894,0.07,0.315,-0.315,0.042,-0.1605,-0.138
06-26-2025 19:26:45.807,-0.056852,-0.17568,1.031876,-0.21,0,1.085,0.042,-0.1575,-0.1365
06-26-2025 19:26:45.847,-0.030012,-0.17568,1.0065,-0.035,0.42,-1.155,0.0405,-0.159,-0.141
06-26-2025 19:26:45.887,-0.030744,-0.185196,1.0248,0.035,0.21,0.455,0.0435,-0.156,-0.1365
06-26-2025 19:26:45.927,-0.07124799,-0.174216,1.041636,-0.035,-0.035,0.665,0.0435,-0.1665,-0.141
06-26-2025 19:26:45.967,-0.04758,-0.182756,1.023824,0.28,-0.315,-1.47,0.039,-0.1605,-0.141
06-26-2025 19:26:46.007,-0.017812,-0.171288,1.016992,0.105,-0.28,0.805,0.045,-0.1545,-0.141
06-26-2025 19:26:46.047,-0.047336,-0.17202,1.000156,0.14,-0.315,0.35,0.048,-0.147,-0.1455
06-26-2025 19:26:46.087,-0.003904,-0.18666,0.998692,-0.035,0.525,-0.91,0.042,-0.1515,-0.1455
06-26-2025 19:26:46.127,-0.055388,-0.182024,1.02846,-0.28,0.35,1.26,0.045,-0.1665,-0.1425
06-26-2025 19:26:46.167,-0.0671,-0.16958,1.036024,-0.21,0.28,-0.455,0.0405,-0.1515,-0.141
06-26-2025 19:26:46.207,-0.029768,-0.18422,1.027972,0,0.035,-0.7,0.048,-0.15,-0.1365
06-26-2025 19:26:46.247,-0.048312,-0.177632,1.02236,0.21,-0.385,1.19,0.054,-0.1605,-0.1335
06-26-2025 19:26:46.287,-0.036844,-0.181292,1.014064,0.21,-0.035,-0.77,0.0345,-0.1545,-0.1425
06-26-2025 19:26:46.327,-0.03782,-0.185196,1.026508,0.175,-0.245,0.105,0.039,-0.1605,-0.135
06-26-2025 19:26:46.367,-0.036844,-0.172996,1.007232,0.105,-0.035,0.805,0.0465,-0.153,-0.132
06-26-2025 19:26:46.407,-0.0183,-0.183976,1.008208,0.07,0.315,-1.05,0.0465,-0.1515,-0.1455
06-26-2025 19:26:46.447,-0.038064,-0.178364,1.022848,-0.175,0.245,0.385,0.045,-0.1635,-0.1425
06-26-2025 19:26:46.487,-0.05612,-0.177388,1.030412,-0.28,0.385,0.525,0.042,-0.162,-0.15
06-26-2025 19:26:46.527,-0.051728,-0.18788,1.035536,0.07,-0.035,-0.91,0.036,-0.1605,-0.1425
06-26-2025 19:26:46.567,-0.044164,-0.172752,1.026752,0.07,-0.385,0.735,0.036,-0.1635,-0.141
06-26-2025 19:26:46.607,-0.03782,-0.170556,1.017968,0.175,-0.385,-0.28,0.0435,-0.1545,-0.1395
06-26-2025 19:26:46.647,-0.007808,-0.178852,1.001864,0.07,-0.07,-0.245,0.0435,-0.159,-0.135
06-26-2025 19:26:46.687,-0.03294,-0.18056,1.004792,-0.105,0.21,0.42,0.0405,-0.1605,-0.132
06-26-2025 19:26:46.727,-0.061,-0.179828,1.033828,-0.035,0.455,-0.315,0.0375,-0.1575,-0.1395
06-26-2025 19:26:46.767,-0.026108,-0.176168,1.02358,-0.105,0.315,-0.035,0.042,-0.1605,-0.1365
06-26-2025 19:26:46.807,-0.068808,-0.176168,1.024068,-0.035,0,0.28,0.051,-0.1605,-0.138
06-26-2025 19:26:46.847,-0.037088,-0.184952,1.02724,0.175,-0.07,-0.455,0.0465,-0.1485,-0.1425
06-26-2025 19:26:46.887,-0.027816,-0.176168,1.020164,0.07,-0.28,0.245,0.0435,-0.1545,-0.144
06-26-2025 19:26:46.927,-0.05124,-0.183244,1.020652,0.175,-0.28,-0.07,0.039,-0.1485,-0.144
06-26-2025 19:26:46.967,-0.015616,-0.176656,1.009184,0.07,0.14,-0.42,0.0375,-0.162,-0.1395
06-26-2025 19:26:47.007,-0.03904,-0.166408,1.016992,-0.21,0.035,0.56,0.042,-0.153,-0.132
06-26-2025 19:26:47.047,-0.03782,-0.177388,1.014064,-0.175,0.35,-0.49,0.0405,-0.1545,-0.144
06-26-2025 19:26:47.087,-0.033184,-0.189588,1.01992,-0.105,0.455,0.14,0.0315,-0.1575,-0.1425
06-26-2025 19:26:47.127,-0.07076,-0.183976,1.031876,0.035,-0.035,0.455,0.048,-0.153,-0.135
06-26-2025 19:26:47.167,-0.048068,-0.179584,1.027972,0.14,-0.14,-0.77,0.042,-0.156,-0.1365
06-26-2025 19:26:47.207,-0.021716,-0.177388,1.016748,0.14,-0.42,0.35,0.0405,-0.156,-0.1305
06-26-2025 19:26:47.247,-0.02928,-0.173728,1.003084,0.07,-0.175,0.35,0.039,-0.1515,-0.135
06-26-2025 19:26:47.287,-0.028304,-0.182024,1.015528,0.035,0.21,-0.735,0.045,-0.156,-0.1395
06-26-2025 19:26:47.327,-0.030744,-0.182268,1.016016,-0.105,0.245,0.77,0.042,-0.1575,-0.1365
06-26-2025 19:26:47.367,-0.061732,-0.178364,1.02602,0,0.28,-0.385,0.0495,-0.159,-0.144
06-26-2025 19:26:47.407,-0.035868,-0.183244,1.025776,0.07,0.245,-0.42,0.033,-0.1575,-0.1425
06-26-2025 19:26:47.447,-0.037576,-0.168116,1.023336,-0.07,-0.105,0.805,0.0435,-0.1605,-0.138
06-26-2025 19:26:47.487,-0.052704,-0.179096,1.023336,0.07,-0.14,-0.49,0.039,-0.165,-0.141
06-26-2025 19:26:47.527,-0.036112,-0.180072,1.025776,0.07,-0.21,0,0.0435,-0.1635,-0.138
06-26-2025 19:26:47.567,-0.037332,-0.178608,1.01504,0.07,-0.21,0.63,0.0405,-0.153,-0.1425
06-26-2025 19:26:47.607,-0.018056,-0.175192,0.99918,0,0.14,-0.77,0.048,-0.1575,-0.1425
06-26-2025 19:26:47.647,-0.030744,-0.183488,1.016504,-0.14,0.315,0.105,0.0345,-0.165,-0.1455
06-26-2025 19:26:47.687,-0.050752,-0.178608,1.033828,-0.105,0.385,0.56,0.036,-0.1545,-0.1485
06-26-2025 19:26:47.727,-0.053436,-0.182512,1.036024,0.035,0.21,-0.665,0.051,-0.1605,-0.1395
06-26-2025 19:26:47.767,-0.050996,-0.174704,1.025044,0.14,-0.35,0.42,0.045,-0.159,-0.147
06-26-2025 19:26:47.807,-0.036844,-0.168604,1.019432,0.175,-0.175,0.035,0.036,-0.162,-0.1395
06-26-2025 19:26:47.847,-0.035624,-0.183976,1.017724,0.14,-0.28,-0.455,0.0465,-0.156,-0.135
06-26-2025 19:26:47.887,-0.012688,-0.172264,1.00162,-0.07,0,0.315,0.048,-0.162,-0.138
06-26-2025 19:26:47.927,-0.046116,-0.184464,1.02236,-0.105,0.28,0,0.051,-0.1605,-0.138
06-26-2025 19:26:47.967,-0.033672,-0.1769,1.026996,-0.105,0.28,-0.21,0.042,-0.153,-0.1395
06-26-2025 19:26:48.007,-0.05002,-0.177632,1.020164,-0.07,0.14,0.175,0.0315,-0.1575,-0.144
06-26-2025 19:26:48.047,-0.03782,-0.176412,1.025776,0.07,0.14,-0.14,0.042,-0.1575,-0.1425
06-26-2025 19:26:48.087,-0.050508,-0.179096,1.029192,0.07,-0.21,0.035,0.0465,-0.147,-0.1395
06-26-2025 19:26:48.127,-0.040504,-0.176168,1.020896,0.175,-0.315,0.035,0.045,-0.159,-0.1335
06-26-2025 19:26:48.167,-0.017568,-0.174704,1.007964,0.175,-0.105,-0.14,0.0375,-0.1545,-0.138
06-26-2025 19:26:48.207,-0.020496,-0.177144,1.009672,-0.035,0,0.21,0.042,-0.1605,-0.1395
06-26-2025 19:26:48.247,-0.044408,-0.183,1.010648,-0.105,0.35,-0.315,0.036,-0.153,-0.1365
06-26-2025 19:26:48.287,-0.042456,-0.188124,1.030168,-0.105,0.315,0.21,0.036,-0.153,-0.1365
06-26-2025 19:26:48.327,-0.05612,-0.181048,1.029436,-0.105,0.07,0.14,0.0375,-0.153,-0.1335
06-26-2025 19:26:48.367,-0.052704,-0.185928,1.030656,0.14,-0.105,-0.525,0.0375,-0.156,-0.1485
06-26-2025 19:26:48.407,-0.033428,-0.175192,1.022116,0.175,-0.245,0.385,0.0375,-0.1605,-0.1395
06-26-2025 19:26:48.447,-0.039528,-0.171776,1.010892,0.105,-0.245,-0.07,0.039,-0.1575,-0.135
06-26-2025 19:26:48.487,-0.0305,-0.178364,1.0126,0.07,0.07,-0.56,0.042,-0.1605,-0.138
06-26-2025 19:26:48.527,-0.03538,-0.18178,1.0187,-0.07,0.21,0.595,0.0435,-0.162,-0.1425
06-26-2025 19:26:48.567,-0.04392,-0.181536,1.016016,-0.07,0.175,-0.385,0.0405,-0.153,-0.1365
06-26-2025 19:26:48.607,-0.033916,-0.18666,1.019188,-0.105,0.28,-0.175,0.039,-0.1605,-0.1365
06-26-2025 19:26:48.647,-0.048312,-0.176412,1.028948,-0.07,0.07,0.63,0.036,-0.1605,-0.1395
06-26-2025 19:26:48.687,-0.054656,-0.178364,1.030656,0.07,-0.07,-0.455,0.0375,-0.162,-0.141
06-26-2025 19:26:48.727,-0.041236,-0.180072,1.026752,0.175,-0.245,-0.21,0.0465,-0.1545,-0.1395
06-26-2025 19:26:48.767,-0.034404,-0.168116,1.013088,0.105,-0.245,0.42,0.0405,-0.1575,-0.144
06-26-2025 19:26:48.807,-0.022448,-0.172996,1.006012,0,0.105,-0.7,0.0405,-0.15,-0.1425
06-26-2025 19:26:48.847,-0.040748,-0.18178,1.024068,-0.035,0.21,0.245,0.039,-0.1635,-0.1395
06-26-2025 19:26:48.887,-0.040992,-0.177876,1.01992,-0.14,0.35,0.35,0.042,-0.159,-0.1485
06-26-2025 19:26:48.927,-0.044408,-0.183976,1.026508,-0.07,0.21,-0.595,0.042,-0.153,-0.138
06-26-2025 19:26:48.967,-0.048556,-0.183488,1.024068,-0.035,-0.035,0.315,0.0495,-0.1575,-0.1425
06-26-2025 19:26:49.007,-0.0427,-0.177388,1.0248,0.14,-0.14,-0.175,0.042,-0.162,-0.147
06-26-2025 19:26:49.047,-0.032208,-0.17446,1.017236,0.14,-0.175,-0.315,0.033,-0.1635,-0.144
06-26-2025 19:26:49.087,-0.03782,-0.175924,1.017724,0.035,-0.14,0.385,0.0375,-0.153,-0.1455
06-26-2025 19:26:49.127,-0.035136,-0.181048,1.014308,0.035,0.105,-0.175,0.036,-0.1605,-0.141
06-26-2025 19:26:49.167,-0.025132,-0.176412,1.014064,-0.07,0.175,-0.14,0.0345,-0.156,-0.147
06-26-2025 19:26:49.207,-0.040748,-0.177632,1.014308,-0.105,0.245,0.315,0.042,-0.1605,-0.1335
06-26-2025 19:26:49.247,-0.039772,-0.184708,1.028216,-0.035,0.245,-0.315,0.042,-0.1605,-0.1335
06-26-2025 19:26:49.287,-0.05246,-0.182512,1.038464,0,-0.105,0.105,0.0405,-0.153,-0.1485
06-26-2025 19:26:49.327,-0.05612,-0.173484,1.023336,0.105,-0.315,0.105,0.0465,-0.1575,-0.138
06-26-2025 19:26:49.367,-0.024888,-0.171044,1.010404,0.14,-0.21,-0.245,0.0435,-0.1515,-0.147
06-26-2025 19:26:49.407,-0.034404,-0.178852,1.013088,0.07,-0.14,0.21,0.0345,-0.1515,-0.1485
06-26-2025 19:26:49.447,-0.032208,-0.176168,1.010892,-0.07,0.245,-0.21,0.042,-0.1635,-0.132
06-26-2025 19:26:49.487,-0.040992,-0.182268,1.024556,-0.07,0.315,0.14,0.042,-0.1635,-0.132
06-26-2025 19:26:49.527,-0.05246,-0.178608,1.031388,-0.035,0.14,0.175,0.042,-0.1605,-0.132
06-26-2025 19:26:49.567,-0.043432,-0.183488,1.022604,0.035,0.035,-0.315,0.045,-0.1635,-0.138
06-26-2025 19:26:49.607,-0.042944,-0.1769,1.022848,0.07,-0.07,0.175,0.0375,-0.159,-0.141
06-26-2025 19:26:49.647,-0.041724,-0.177388,1.020164,0.105,-0.245,0.035,0.0405,-0.156,-0.1275
06-26-2025 19:26:49.687,-0.037332,-0.179584,1.016504,0.175,-0.105,-0.35,0.0345,-0.1515,-0.141
06-26-2025 19:26:49.727,-0.027572,-0.173972,1.011624,0,0.035,0.35,0.042,-0.1545,-0.1425
06-26-2025 19:26:49.767,-0.033184,-0.177876,1.016748,-0.14,0.21,-0.245,0.039,-0.1575,-0.141
06-26-2025 19:26:49.807,-0.038796,-0.182512,1.023092,-0.035,0.35,-0.175,0.036,-0.1515,-0.1425
06-26-2025 19:26:49.847,-0.0488,-0.177144,1.02846,-0.105,0.14,0.35,0.0345,-0.1605,-0.144
06-26-2025 19:26:49.887,-0.05002,-0.17812,1.027484,0,0,-0.315,0.039,-0.153,-0.1425
06-26-2025 19:26:49.927,-0.038552,-0.183488,1.027728,0.14,-0.175,-0.105,0.033,-0.1545,-0.138
06-26-2025 19:26:49.967,-0.030256,-0.173728,1.012112,0.07,-0.245,0.21,0.0435,-0.15,-0.138
06-26-2025 19:26:50.007,-0.028304,-0.173484,1.010892,0.035,-0.035,-0.455,0.048,-0.153,-0.1365
06-26-2025 19:26:50.047,-0.029036,-0.17934,1.016992,0,0.14,0.245,0.039,-0.153,-0.1425
06-26-2025 19:26:50.087,-0.0427,-0.17934,1.021628,-0.07,0.245,0.175,0.0405,-0.162,-0.138
06-26-2025 19:26:50.127,-0.043676,-0.180072,1.01992,-0.035,0.245,-0.385,0.039,-0.1575,-0.132
06-26-2025 19:26:50.167,-0.047336,-0.182268,1.028704,0,0.07,0.28,0.042,-0.1575,-0.141
06-26-2025 19:26:50.207,-0.041236,-0.181292,1.027972,0.07,-0.07,-0.175,0.0435,-0.1665,-0.141
06-26-2025 19:26:50.247,-0.0366,-0.177388,1.017968,0.105,-0.175,-0.28,0.039,-0.159,-0.1395
06-26-2025 19:26:50.287,-0.035868,-0.178852,1.01626,0,-0.14,0.28,0.0405,-0.156,-0.1425
06-26-2025 19:26:50.327,-0.036112,-0.175192,1.013088,0.07,0,-0.21,0.039,-0.156,-0.1395
06-26-2025 19:26:50.367,-0.02196,-0.181536,1.013088,-0.035,0.105,-0.105,0.0345,-0.1575,-0.135
06-26-2025 19:26:50.407,-0.03782,-0.17812,1.015528,-0.105,0.28,0.28,0.036,-0.159,-0.141
06-26-2025 19:26:50.447,-0.051484,-0.185684,1.032608,-0.07,0.245,-0.315,0.0405,-0.153,-0.138
06-26-2025 19:26:50.487,-0.050752,-0.18178,1.030168,0,0,0.14,0.0345,-0.153,-0.138
06-26-2025 19:26:50.527,-0.04514,-0.17812,1.022116,0.14,-0.21,0.07,0.036,-0.1605,-0.138
06-26-2025 19:26:50.567,-0.029036,-0.177876,1.013088,0.175,-0.21,-0.245,0.045,-0.1635,-0.144
06-26-2025 19:26:50.607,-0.034648,-0.178852,1.014796,0.035,-0.14,0.07,0.0345,-0.156,-0.141
06-26-2025 19:26:50.647,-0.033428,-0.178608,1.010892,-0.035,0.07,-0.035,0.039,-0.153,-0.1425
06-26-2025 19:26:50.687,-0.035624,-0.177876,1.018456,-0.105,0.21,0,0.036,-0.1605,-0.1395
06-26-2025 19:26:50.727,-0.043432,-0.179584,1.018212,-0.07,0.21,0.14,0.042,-0.153,-0.138
06-26-2025 19:26:50.767,-0.039772,-0.183976,1.02236,0,0.21,-0.175,0.0345,-0.168,-0.1365
06-26-2025 19:26:50.807,-0.047824,-0.18178,1.028704,0.035,-0.035,0,0.0435,-0.1605,-0.1425
06-26-2025 19:26:50.847,-0.048312,-0.177144,1.02236,0.14,-0.245,0.035,0.045,-0.1515,-0.138
06-26-2025 19:26:50.887,-0.036112,-0.176656,1.016504,0.175,-0.21,-0.175,0.042,-0.1605,-0.1425
06-26-2025 19:26:50.927,-0.03294,-0.174704,1.012112,0.035,-0.14,0.105,0.0345,-0.162,-0.1395
06-26-2025 19:26:50.967,-0.032208,-0.179828,1.007476,-0.035,0.175,-0.07,0.0465,-0.159,-0.138
06-26-2025 19:26:51.007,-0.037088,-0.178852,1.020652,-0.105,0.35,-0.035,0.036,-0.162,-0.1425
06-26-2025 19:26:51.047,-0.045384,-0.179096,1.02846,-0.105,0.245,0.14,0.0435,-0.1545,-0.141
06-26-2025 19:26:51.087,-0.050752,-0.17568,1.02114,0,0.07,-0.175,0.042,-0.1545,-0.138
06-26-2025 19:26:51.127,-0.046848,-0.183244,1.02602,0.105,-0.105,-0.035,0.0465,-0.1545,-0.1425
06-26-2025 19:26:51.167,-0.038796,-0.174216,1.022848,0.105,-0.245,0.035,0.048,-0.1605,-0.141
06-26-2025 19:26:51.207,-0.030256,-0.172752,1.015284,0.105,-0.07,-0.28,0.045,-0.156,-0.144
06-26-2025 19:26:51.247,-0.032696,-0.175924,1.01626,0,0.07,0.175,0.042,-0.1575,-0.141
06-26-2025 19:26:51.287,-0.038796,-0.174704,1.014064,-0.07,0.21,0.035,0.039,-0.153,-0.1425
06-26-2025 19:26:51.327,-0.042944,-0.18056,1.023092,-0.105,0.245,-0.245,0.042,-0.1635,-0.138
06-26-2025 19:26:51.367,-0.04758,-0.174216,1.02724,-0.07,0.14,0.28,0.0345,-0.159,-0.1305
06-26-2025 19:26:51.407,-0.047824,-0.181048,1.028216,0,-0.035,-0.245,0.045,-0.156,-0.1395
06-26-2025 19:26:51.447,-0.044164,-0.178608,1.023336,0.105,-0.14,-0.14,0.0435,-0.156,-0.138
06-26-2025 19:26:51.487,-0.034892,-0.176412,1.018944,0.105,-0.245,0.245,0.039,-0.156,-0.1395
06-26-2025 19:26:51.527,-0.03172,-0.177144,1.011624,0.105,-0.105,-0.245,0.039,-0.159,-0.138
06-26-2025 19:26:51.567,-0.029768,-0.174704,1.012356,0,0.07,-0.035,0.045,-0.1605,-0.1365
06-26-2025 19:26:51.607,-0.04026,-0.179828,1.016748,-0.105,0.28,0.21,0.0495,-0.162,-0.15
06-26-2025 19:26:51.647,-0.043676,-0.18178,1.026752,-0.07,0.21,-0.28,0.039,-0.1605,-0.141
06-26-2025 19:26:51.687,-0.045872,-0.18056,1.027728,-0.035,0.07,0.175,0.045,-0.159,-0.1425
06-26-2025 19:26:51.727,-0.040992,-0.181292,1.019432,0.035,-0.07,0.035,0.045,-0.1485,-0.1395
06-26-2025 19:26:51.767,-0.03782,-0.173728,1.021628,0.07,-0.14,-0.28,0.045,-0.159,-0.147
06-26-2025 19:26:51.807,-0.035136,-0.17568,1.01504,0.035,-0.14,0.14,0.0345,-0.1545,-0.1455
06-26-2025 19:26:51.847,-0.033184,-0.179096,1.011624,0.07,-0.035,-0.07,0.0375,-0.159,-0.144
06-26-2025 19:26:51.887,-0.02806,-0.176168,1.017236,-0.035,0.105,-0.07,0.0405,-0.156,-0.132
06-26-2025 19:26:51.927,-0.036844,-0.175192,1.01992,-0.07,0.21,0.14,0.048,-0.1575,-0.135
06-26-2025 19:26:51.967,-0.042456,-0.183244,1.022604,-0.07,0.245,-0.175,0.0375,-0.156,-0.1395
06-26-2025 19:26:52.007,-0.04636,-0.181536,1.029924,0.035,0.105,0,0.0435,-0.162,-0.1395
06-26-2025 19:26:52.047,-0.044652,-0.179584,1.02114,0.035,-0.14,0.07,0.036,-0.156,-0.1485
06-26-2025 19:26:52.087,-0.043188,-0.175924,1.024312,0.07,-0.175,-0.175,0.042,-0.156,-0.138
06-26-2025 19:26:52.127,-0.026108,-0.172508,1.014308,0.07,-0.175,0.07,0.033,-0.159,-0.1425
06-26-2025 19:26:52.167,-0.031964,-0.17934,1.013576,0,0.07,-0.07,0.0435,-0.1635,-0.144
06-26-2025 19:26:52.207,-0.038552,-0.179584,1.018456,-0.035,0.245,-0.07,0.0285,-0.1575,-0.1425
06-26-2025 19:26:52.247,-0.041724,-0.18056,1.025532,-0.105,0.245,0.105,0.042,-0.15,-0.1365
06-26-2025 19:26:52.287,-0.050752,-0.188124,1.026752,-0.035,0.14,-0.105,0.039,-0.171,-0.1365
06-26-2025 19:26:52.327,-0.045384,-0.178608,1.028948,0.07,-0.035,0,0.045,-0.1485,-0.138
06-26-2025 19:26:52.367,-0.03904,-0.179096,1.01992,0.07,-0.14,0.07,0.0465,-0.1515,-0.147
06-26-2025 19:26:52.407,-0.038552,-0.178852,1.020652,0.07,-0.14,-0.14,0.0375,-0.1575,-0.141
06-26-2025 19:26:52.447,-0.035868,-0.179584,1.016504,0.035,-0.07,0.105,0.0435,-0.156,-0.1395
06-26-2025 19:26:52.487,-0.033184,-0.176168,1.011868,0,0.035,-0.035,0.0375,-0.153,-0.147
06-26-2025 19:26:52.527,-0.035136,-0.180316,1.011136,-0.07,0.21,-0.14,0.0405,-0.1605,-0.1395
06-26-2025 19:26:52.567,-0.046604,-0.18178,1.024556,-0.105,0.245,0.14,0.042,-0.162,-0.138
06-26-2025 19:26:52.607,-0.049776,-0.179828,1.027484,-0.035,0.14,-0.07,0.0435,-0.1575,-0.1425
06-26-2025 19:26:52.647,-0.042944,-0.181048,1.023336,0.105,-0.105,-0.035,0.039,-0.1635,-0.141
06-26-2025 19:26:52.687,-0.036112,-0.17324,1.019676,0.14,-0.21,0.105,0.0375,-0.1665,-0.135
06-26-2025 19:26:52.727,-0.03172,-0.176412,1.01138,0.105,-0.14,-0.245,0.0435,-0.156,-0.1425
06-26-2025 19:26:52.767,-0.031232,-0.181292,1.01138,0,0,0.035,0.0375,-0.1605,-0.1395
06-26-2025 19:26:52.807,-0.03416,-0.180072,1.016992,-0.07,0.175,0.105,0.042,-0.1575,-0.1395
06-26-2025 19:26:52.847,-0.04026,-0.180804,1.02358,-0.07,0.21,-0.14,0.048,-0.1635,-0.1455
06-26-2025 19:26:52.887,-0.042456,-0.182268,1.022604,-0.035,0.14,0.175,0.042,-0.1635,-0.141
06-26-2025 19:26:52.927,-0.044408,-0.184464,1.023092,0.035,0.07,-0.035,0.042,-0.1605,-0.135
06-26-2025 19:26:52.967,-0.046604,-0.18056,1.024556,0.07,-0.105,-0.175,0.039,-0.1575,-0.1395
06-26-2025 19:26:53.007,-0.040748,-0.173728,1.022604,0.07,-0.175,0.175,0.0435,-0.153,-0.141
06-26-2025 19:26:53.047,-0.035624,-0.178852,1.014308,0.07,-0.14,-0.105,0.0405,-0.165,-0.1395
06-26-2025 19:26:53.087,-0.03172,-0.17812,1.010892,0,0.07,-0.07,0.039,-0.1545,-0.141
06-26-2025 19:26:53.127,-0.038064,-0.182024,1.022116,-0.105,0.175,0.105,0.045,-0.156,-0.1425
06-26-2025 19:26:53.167,-0.038552,-0.184952,1.023824,-0.07,0.245,-0.14,0.0405,-0.156,-0.132
06-26-2025 19:26:53.207,-0.04758,-0.18178,1.027972,-0.035,0.14,0.035,0.0435,-0.1515,-0.147
06-26-2025 19:26:53.247,-0.04758,-0.174704,1.020164,0.07,-0.035,0.035,0.039,-0.159,-0.147
06-26-2025 19:26:53.287,-0.042944,-0.182756,1.021628,0.105,-0.14,-0.21,0.045,-0.1575,-0.147
06-26-2025 19:26:53.327,-0.03416,-0.177876,1.017236,0.105,-0.175,0.07,0.039,-0.1605,-0.1395
06-26-2025 19:26:53.367,-0.02806,-0.178852,1.014064,0.035,-0.035,-0.07,0.0435,-0.1545,-0.1455
06-26-2025 19:26:53.407,-0.032696,-0.1769,1.013576,-0.07,0.105,-0.105,0.0405,-0.1545,-0.1395
06-26-2025 19:26:53.447,-0.0427,-0.179096,1.02114,-0.105,0.175,0.14,0.0435,-0.1605,-0.138
06-26-2025 19:26:53.487,-0.043188,-0.179584,1.025776,0,0.14,-0.07,0.039,-0.156,-0.1395
06-26-2025 19:26:53.527,-0.044896,-0.183244,1.02358,0,0.105,0,0.042,-0.159,-0.144
06-26-2025 19:26:53.567,-0.047824,-0.1769,1.023336,0.035,-0.07,0.035,0.0405,-0.1545,-0.141
06-26-2025 19:26:53.607,-0.040016,-0.178852,1.017968,0.105,-0.105,-0.14,0.0405,-0.1545,-0.141
06-26-2025 19:26:53.647,-0.036356,-0.177388,1.021872,0.14,-0.14,0.07,0.0375,-0.153,-0.141
06-26-2025 19:26:53.687,-0.031476,-0.176412,1.009184,0.035,-0.035,-0.035,0.0435,-0.1575,-0.1485
06-26-2025 19:26:53.727,-0.036844,-0.180316,1.013576,-0.07,0.21,-0.14,0.03,-0.1605,-0.1455
06-26-2025 19:26:53.767,-0.038796,-0.178608,1.023824,-0.07,0.245,0.14,0.039,-0.1545,-0.138
06-26-2025 19:26:53.807,-0.048068,-0.177388,1.026264,-0.035,0.175,-0.035,0.042,-0.1605,-0.1455
06-26-2025 19:26:53.847,-0.04148,-0.183732,1.027484,0.035,0,-0.035,0.039,-0.1545,-0.1425
06-26-2025 19:26:53.887,-0.044408,-0.177632,1.021628,0.105,-0.14,0.035,0.0435,-0.156,-0.144
06-26-2025 19:26:53.927,-0.03782,-0.18056,1.016992,0.105,-0.105,-0.175,0.0375,-0.1545,-0.141
06-26-2025 19:26:53.967,-0.030988,-0.176168,1.013576,0.07,-0.07,0,0.042,-0.159,-0.1365
06-26-2025 19:26:54.007,-0.033428,-0.181292,1.01138,0,0.07,0.035,0.045,-0.1605,-0.1365
06-26-2025 19:26:54.047,-0.03538,-0.177632,1.018212,-0.07,0.21,-0.105,0.0285,-0.15,-0.138
06-26-2025 19:26:54.087,-0.043676,-0.177876,1.023824,-0.07,0.175,0.105,0.0375,-0.153,-0.138
06-26-2025 19:26:54.127,-0.04514,-0.177876,1.021628,-0.035,0.14,-0.07,0.0555,-0.156,-0.138
06-26-2025 19:26:54.167,-0.043188,-0.178852,1.029192,0.07,-0.035,-0.035,0.0375,-0.153,-0.1275
06-26-2025 19:26:54.207,-0.040748,-0.182756,1.02114,0.105,-0.14,0.035,0.0345,-0.1575,-0.1455
06-26-2025 19:26:54.247,-0.03172,-0.181536,1.016504,0.105,-0.14,-0.105,0.042,-0.153,-0.135
06-26-2025 19:26:54.287,-0.031232,-0.177388,1.016016,0.07,-0.035,-0.035,0.0465,-0.1545,-0.1395
06-26-2025 19:26:54.327,-0.04026,-0.178364,1.012356,-0.035,0.175,0.035,0.0495,-0.1515,-0.1395
06-26-2025 19:26:54.367,-0.038308,-0.179096,1.020896,-0.07,0.245,-0.07,0.048,-0.156,-0.144
06-26-2025 19:26:54.407,-0.04636,-0.184464,1.026752,-0.035,0.21,0.035,0.042,-0.1575,-0.132
06-26-2025 19:26:54.447,-0.049288,-0.17324,1.0248,0,0.035,-0.035,0.033,-0.156,-0.1395
06-26-2025 19:26:54.487,-0.0427,-0.180316,1.021384,0.105,-0.07,-0.105,0.042,-0.1545,-0.1425
06-26-2025 19:26:54.527,-0.038064,-0.17812,1.01992,0.07,-0.14,0.14,0.0525,-0.159,-0.1365
06-26-2025 19:26:54.567,-0.036112,-0.185196,1.015772,0.035,-0.07,-0.105,0.033,-0.1575,-0.1395
06-26-2025 19:26:54.607,-0.038796,-0.180072,1.013332,0,0.035,-0.035,0.0375,-0.1665,-0.147
06-26-2025 19:26:54.647,-0.031476,-0.178364,1.016992,-0.035,0.105,0.07,0.036,-0.1545,-0.1335
06-26-2025 19:26:54.687,-0.043676,-0.18056,1.02114,-0.07,0.175,-0.07,0.0345,-0.156,-0.1395
06-26-2025 19:26:54.727,-0.04514,-0.180804,1.026264,-0.035,0.175,0,0.0405,-0.1575,-0.1365
06-26-2025 19:26:54.767,-0.044652,-0.181536,1.028948,0.035,0.035,0.035,0.039,-0.159,-0.1395
06-26-2025 19:26:54.807,-0.042456,-0.179828,1.01992,0.07,-0.14,-0.105,0.036,-0.156,-0.141
06-26-2025 19:26:54.847,-0.039528,-0.17812,1.018944,0.07,-0.14,0.07,0.0405,-0.153,-0.1395
06-26-2025 19:26:54.887,-0.037088,-0.174948,1.009916,0.035,-0.07,-0.07,0.0375,-0.1575,-0.144
06-26-2025 19:26:54.927,-0.037576,-0.183244,1.014308,-0.07,0.07,-0.035,0.048,-0.156,-0.141
06-26-2025 19:26:54.967,-0.039284,-0.182268,1.018944,-0.07,0.175,0.105,0.0405,-0.153,-0.141
06-26-2025 19:26:55.007,-0.045384,-0.178364,1.025288,-0.07,0.14,0,0.048,-0.159,-0.144
06-26-2025 19:26:55.047,-0.047336,-0.179584,1.025532,0.035,0.07,0,0.0435,-0.1575,-0.147
06-26-2025 19:26:55.087,-0.04392,-0.178608,1.020408,0.07,-0.035,0,0.0375,-0.153,-0.135
06-26-2025 19:26:55.127,-0.044408,-0.17446,1.020652,0.14,-0.105,-0.14,0.051,-0.1515,-0.135
06-26-2025 19:26:55.167,-0.033916,-0.17568,1.016504,0.07,-0.105,0,0.0435,-0.1635,-0.141
06-26-2025 19:26:55.207,-0.036112,-0.177388,1.016992,0.035,0,0.035,0.042,-0.1515,-0.147
06-26-2025 19:26:55.247,-0.031476,-0.178852,1.01382,-0.035,0.105,-0.07,0.0375,-0.1575,-0.1335
06-26-2025 19:26:55.287,-0.046116,-0.179584,1.019676,-0.07,0.21,0.07,0.045,-0.156,-0.138
06-26-2025 19:26:55.327,-0.046116,-0.182756,1.02358,-0.035,0.175,-0.07,0.0495,-0.162,-0.141
06-26-2025 19:26:55.367,-0.042212,-0.180316,1.024556,0,0,-0.07,0.036,-0.156,-0.1395
06-26-2025 19:26:55.407,-0.042212,-0.180804,1.025288,0.07,-0.07,-0.035,0.0435,-0.159,-0.147
06-26-2025 19:26:55.447,-0.037332,-0.179828,1.02114,0.14,-0.14,-0.035,0.048,-0.1515,-0.144
06-26-2025 19:26:55.487,-0.026596,-0.173728,1.013088,0.07,-0.07,-0.035,0.048,-0.1665,-0.1395
06-26-2025 19:26:55.527,-0.036844,-0.181536,1.014308,-0.035,0.07,0,0.045,-0.156,-0.1305
06-26-2025 19:26:55.567,-0.04148,-0.17812,1.01992,-0.07,0.21,-0.07,0.042,-0.159,-0.141
06-26-2025 19:26:55.607,-0.037576,-0.174704,1.022116,-0.07,0.175,0.07,0.0405,-0.162,-0.1395
06-26-2025 19:26:55.647,-0.0488,-0.183,1.024068,0,0.105,-0.035,0.033,-0.159,-0.147
06-26-2025 19:26:55.687,-0.044164,-0.182512,1.02724,0.035,0,-0.035,0.0495,-0.162,-0.1395
06-26-2025 19:26:55.727,-0.04148,-0.181292,1.024556,0.07,-0.105,0.035,0.0435,-0.165,-0.132
06-26-2025 19:26:55.767,-0.038552,-0.176656,1.019188,0.07,-0.105,-0.105,0.0435,-0.1545,-0.135
06-26-2025 19:26:55.807,-0.033916,-0.17934,1.017236,0.07,0,0,0.0495,-0.1575,-0.138
06-26-2025 19:26:55.847,-0.028548,-0.177632,1.015284,0,0.105,0,0.0495,-0.162,-0.138
06-26-2025 19:26:55.887,-0.034892,-0.180072,1.018456,-0.035,0.21,-0.07,0.036,-0.1545,-0.1365
06-26-2025 19:26:55.927,-0.043676,-0.177632,1.025288,-0.07,0.21,0,0.033,-0.159,-0.141
06-26-2025 19:26:55.967,-0.04392,-0.179584,1.023824,0,0.07,0,0.042,-0.1605,-0.129
06-26-2025 19:26:56.007,-0.044896,-0.178852,1.0248,0.07,-0.105,-0.07,0.039,-0.156,-0.1305
06-26-2025 19:26:56.047,-0.038064,-0.179096,1.023092,0.07,-0.14,0.035,0.0435,-0.156,-0.1425
06-26-2025 19:26:56.087,-0.034648,-0.178608,1.01504,0.07,-0.07,-0.07,0.039,-0.162,-0.1395
06-26-2025 19:26:56.127,-0.033916,-0.178364,1.016504,0.035,0.035,-0.07,0.0465,-0.1575,-0.135
06-26-2025 19:26:56.167,-0.03538,-0.182024,1.017236,-0.035,0.105,0.105,0.0435,-0.1515,-0.135
06-26-2025 19:26:56.207,-0.039284,-0.182756,1.019432,-0.07,0.175,-0.07,0.0435,-0.162,-0.1395
06-26-2025 19:26:56.247,-0.04636,-0.179096,1.0187,0,0.105,0,0.036,-0.156,-0.1395
06-26-2025 19:26:56.287,-0.042944,-0.177876,1.024312,0.035,0.035,0,0.036,-0.159,-0.138
06-26-2025 19:26:56.327,-0.040504,-0.176412,1.02602,0.07,-0.07,-0.105,0.0405,-0.159,-0.1455
06-26-2025 19:26:56.367,-0.03904,-0.174948,1.016992,0.035,-0.105,0,0.039,-0.159,-0.1425
06-26-2025 19:26:56.407,-0.03538,-0.177632,1.019188,0.035,-0.07,-0.035,0.0435,-0.162,-0.141
06-26-2025 19:26:56.447,-0.034892,-0.181536,1.017724,0.035,0.07,0,0.042,-0.156,-0.1395
06-26-2025 19:26:56.487,-0.037576,-0.177388,1.01626,-0.035,0.14,0.035,0.045,-0.1635,-0.1425
06-26-2025 19:26:56.527,-0.044896,-0.175924,1.02358,-0.07,0.175,-0.07,0.0435,-0.159,-0.1485
06-26-2025 19:26:56.567,-0.043188,-0.17568,1.021872,0,0.14,-0.07,0.045,-0.153,-0.1365
06-26-2025 19:26:56.607,-0.047092,-0.178852,1.020408,0.07,-0.07,0,0.048,-0.156,-0.1455
06-26-2025 19:26:56.647,-0.035624,-0.17934,1.023824,0.105,-0.105,-0.035,0.0435,-0.1545,-0.1425
06-26-2025 19:26:56.687,-0.035136,-0.180072,1.01626,0.07,-0.14,-0.035,0.045,-0.1665,-0.1395
06-26-2025 19:26:56.727,-0.032208,-0.17568,1.01504,0.035,0,0,0.0315,-0.1575,-0.129
06-26-2025 19:26:56.767,-0.037332,-0.182024,1.019676,-0.035,0.105,-0.035,0.039,-0.1545,-0.138
06-26-2025 19:26:56.807,-0.041724,-0.180072,1.016992,-0.07,0.175,0.035,0.042,-0.1545,-0.1485
06-26-2025 19:26:56.847,-0.046604,-0.179584,1.025532,-0.07,0.105,-0.035,0.0435,-0.165,-0.1335
06-26-2025 19:26:56.887,-0.042944,-0.181292,1.029436,0.035,0.07,-0.035,0.036,-0.1635,-0.147
06-26-2025 19:26:56.927,-0.041236,-0.18178,1.023336,0.105,-0.035,0.035,0.039,-0.1605,-0.132
06-26-2025 19:26:56.967,-0.043676,-0.177388,1.020164,0.105,-0.14,-0.07,0.048,-0.159,-0.1365
06-26-2025 19:26:57.007,-0.033428,-0.18056,1.01504,0.035,-0.035,-0.035,0.048,-0.159,-0.1365
06-26-2025 19:26:57.047,-0.030988,-0.176656,1.012356,-0.035,0.035,0,0.0345,-0.162,-0.141
06-26-2025 19:26:57.087,-0.038064,-0.172996,1.020164,-0.07,0.14,-0.105,0.0345,-0.1605,-0.138
